worker_id	set	trial	trial_overall	stimulus	addend1	addend2	target	correct	response	lateResponse	rt	rt_adj	z_rt	z_rt_adj
0	0.0	0	0	18+17	18	17	35	True	35		1.654	0.6449999999999998	1.381696767554542	1.0902220282310173
0	0.0	1	1	4+8	4	8	12	True	12		1.32	0.42900000000000005	0.41900634367134976	0.48749715076401445
0	0.0	10	10	14+4	14	4	18	True	18		1.162	0.26249999999999996	-0.03639810834525079	0.022896724383198886
0	0.0	100	100	5+15	5	15	20	True	20		1.001	0.02733333333333332	-0.5004494803368498	-0.6333106846491637
0	0.0	101	101	12+11	12	11	23	False	22		1.808	0.8336666666666667	1.825571992937811	1.616676165030901
0	0.0	102	102	1+16	1	16	17	True	17		1.041	0.1543333333333332	-0.38515721400353314	-0.27893077984217585
0	0.0	103	103	3+20	3	20	23	True	23		1.005	0.03066666666666651	-0.4889202537035181	-0.6240093748117105
0	0.0	104	104	16+10	16	10	26	True	26		1.145	0.135	-0.08539732153691003	-0.3328783768994073
0	0.0	105	105	10+2	10	2	12	True	12		1.112	0.22100000000000009	-0.1805134412618959	-0.09290458309310007
0	0.0	106	106	19+8	19	8	27	True	27		1.114	0.20000000000000018	-0.17474882794523006	-0.15150283506905848
0	0.0	107	107	19+4	19	4	23	True	23		1.223	0.2486666666666667	0.13942259781305733	-0.01570371144223399
0	0.0	108	108	9+17	9	17	26	False	24		1.255	0.24499999999999988	0.23165641087970998	-0.025935152263433552
0	0.0	109	109	4+14	4	14	18	False	1	8	1.146	0.24649999999999994	-0.08251501487857743	-0.021749562836579202
0	0.0	11	11	7+12	7	12	19	False	1	9	1.165		-0.027751188370251728	
0	0.0	110	110	12+0	12	0	12	True	12		0.999	0.10799999999999998	-0.5062140936535152	-0.40821898658278283
0	0.0	111	111	18+4	18	4	22	True	22		1.045	0.10266666666666657	-0.37362798737020153	-0.42310108232270904
0	0.0	112	112	18+1	18	1	19	True	19		1.117		-0.16610190797023164	
0	0.0	113	113	15+7	15	7	22	False	23		1.418	0.47566666666666657	0.7014723961879747	0.6177154884883667
0	0.0	114	114	0+5	0	5	5	True	5		1.113	0.22466666666666668	-0.1776311346035633	-0.08267314227190112
0	0.0	115	115	15+5	15	5	20	True	20		0.879	-0.09466666666666657	-0.8520908926534647	-0.9737386246999711
0	0.0	116	116	13+10	13	10	23	True	23		1.128	0.1536666666666665	-0.13439653472856988	-0.2807910418096667
0	0.0	117	117	17+0	17	0	17	True	17		1.039	0.1523333333333332	-0.390921827320199	-0.2845115657446481
0	0.0	118	118	3+16	3	16	19	True	19		0.974		-0.5782717601118381	
0	0.0	119	119	16+17	16	17	33	False	23		1.877	0.945	2.0244511523627815	1.9273399136018563
0	0.0	12	12	12+3	12	3	15	True	15		1.068	0.09866666666666679	-0.30733493422854413	-0.43426265412765297
0	0.0	120	120	17+20	17	20	37	False	3	77	1.415	0.539	0.6928254762129763	0.7944403753999885
0	0.0	121	121	13+20	13	20	33	True	33		1.821	0.8889999999999999	1.8630419794961386	1.7710779083326331
0	0.0	122	122	17+3	17	3	20	True	20		0.939	-0.03466666666666662	-0.6791524931534901	-0.8063150476258035
0	0.0	123	123	1+1	1	1	2	True	2		0.918	0.01966666666666672	-0.739680932978481	-0.6547036972753073
0	0.0	124	124	11+11	11	11	22	True	22		1.184	0.24166666666666659	0.027012638138073336	-0.03523646210088722
0	0.0	125	125	15+4	15	4	19	True	19		1.161		-0.03928041500358339	
0	0.0	126	126	2+0	2	0	2	True	2		0.925	0.026666666666666727	-0.7195047863701507	-0.6351709466166543
0	0.0	127	127	5+2	5	2	7	True	7		1.016	0.034333333333333216	-0.4572148804618557	-0.6137779339905112
0	0.0	128	128	15+11	15	11	26	True	26		1.091	0.08099999999999996	-0.24104188108688743	-0.48355959626615835
0	0.0	129	129	8+7	8	7	15	True	15		0.95	-0.019333333333333313	-0.6474471199118281	-0.7635290223735164
0	0.0	13	13	11+18	11	18	29	True	29		1.281	0.3849999999999999	0.30659638399636574	0.3647198609096244
0	0.0	130	130	14+12	14	12	26	False	1	6	1.565	0.5549999999999999	1.125171474962913	0.8390866626197663
0	0.0	131	131	2+11	2	11	13	True	13		1.074		-0.29004109427854663	
0	0.0	132	132	13+3	13	3	16	False	1	6	1.03		-0.4168625872451949	
0	0.0	133	133	1+12	1	12	13	False	13Enter		1.065		-0.3159818542035432	
0	0.0	134	134	20+17	20	17	37	True	37		1.288	0.41200000000000003	0.32677253060469647	0.44006047059300024
0	0.0	135	135	8+2	8	2	10	True	10		0.975	0.17466666666666675	-0.5753894534535052	-0.22219278983370733
0	0.0	136	136	18+18	18	18	36	True	36		1.253	0.30666666666666653	0.22589179756304414	0.14613907972946094
0	0.0	137	137	8+20	8	20	28	True	28		0.988	-0.04833333333333334	-0.5379194668951773	-0.8444504179593642
0	0.0	138	138	15+3	15	3	18	False	1	8	0.913	0.013500000000000068	-0.7540924662701456	-0.6719111204745967
0	0.0	139	139	10+12	10	12	22	True	22		1.432	0.4896666666666666	0.7418246894046355	0.6567809898056726
0	0.0	14	14	12+4	12	4	16	False	1	6	1.138		-0.10557346814524075	
0	0.0	140	140	8+15	8	15	23	True	23		1.131	0.15666666666666662	-0.12574961475357083	-0.272419862955958
0	0.0	141	141	8+3	8	3	11	True	11		0.982	0.18333333333333335	-0.5552133068451748	-0.19800938425632775
0	0.0	142	142	5+3	5	3	8	True	8		0.99	0.09066666666666667	-0.5321548535785116	-0.4565857977375423
0	0.0	143	143	13+12	13	12	25	True	25		1.018	-0.046333333333333115	-0.4514502671451899	-0.8388696320568912
0	0.0	144	144	7+17	7	17	24	True	24		1.102	0.15433333333333343	-0.20933650784522503	-0.27893077984217524
0	0.0	145	145	5+20	5	20	25	True	25		1.047	-0.0173333333333332	-0.3678633740535357	-0.7579482364710438
0	0.0	146	146	12+19	12	19	31	True	31		1.325	0.42966666666666664	0.433417876963014	0.489357412731505
0	0.0	15	15	15+13	15	13	28	True	28		1.125	0.08866666666666667	-0.14304345470356833	-0.46216658364001456
0	0.0	16	16	2+7	2	7	9	True	9		1.067	0.09733333333333316	-0.31021724088687735	-0.43798317806263526
0	0.0	17	17	15+9	15	9	24	True	24		1.118	0.17033333333333345	-0.16321960131189842	-0.23428449262239714
0	0.0	18	18	18+8	18	8	26	False	36		1.206	0.19599999999999995	0.09042338462139746	-0.16266440687400363
0	0.0	19	19	0+12	0	12	12	True	12		0.952	0.06099999999999994	-0.6416825065951622	-0.5393674552908809
0	0.0	2	2	0+2	0	2	2	True	2		1.257	0.3586666666666666	0.23742102419637579	0.29123951319373975
0	0.0	20	20	8+13	8	13	21	True	21		1.237	0.3616666666666667	0.17977489102971814	0.29961069204744845
0	0.0	21	21	7+1	7	1	8	True	8		1.061	0.16166666666666663	-0.32751108083687486	-0.25846789819977734
0	0.0	22	22	3+0	3	0	3	True	3		1.03	0.1283333333333333	-0.4168625872451949	-0.3514809965743149
0	0.0	23	23	17+15	17	15	32	True	32		1.429	0.41833333333333345	0.7331777694296372	0.4577329592841626
0	0.0	24	24	13+11	13	11	24	True	24		1.48	0.5323333333333333	0.8801754090046154	0.7758377557250808
0	0.0	25	25	4+12	4	12	16	True	16		1.274		0.2864202373880357	
0	0.0	26	26	1+10	1	10	11	True	11		1.09	0.29133333333333344	-0.24392418774522	0.10335305447717434
0	0.0	27	27	16+5	16	5	21	True	21		1.166	0.2906666666666665	-0.024868881711919134	0.10149279250968286
0	0.0	28	28	4+6	4	6	10	True	10		1.108	0.30766666666666687	-0.19204266789522756	0.148929472680698
0	0.0	29	29	18+7	18	7	25	True	25		1.049	-0.015333333333333199	-0.36209876073686986	-0.7523674505685715
0	0.0	3	3	14+9	14	9	23	True	23		1.348	0.3736666666666667	0.4997109301046714	0.333095407462282
0	0.0	30	30	3+10	3	10	13	True	13		1.206		0.09042338462139746	
0	0.0	31	31	1+7	1	7	8	True	8		1.094	0.19466666666666677	-0.23239496111188837	-0.16638493080898473
0	0.0	32	32	17+14	17	14	31	True	31		1.312	0.41666666666666674	0.3959478904046864	0.4530823043654356
0	0.0	33	33	20+7	20	7	27	True	27		0.998	0.08400000000000007	-0.5090964003118482	-0.4751884174124496
0	0.0	34	34	2+2	2	2	4	True	4		1.022	0.10966666666666669	-0.4399210405118582	-0.4035683316640558
0	0.0	35	35	19+10	19	10	29	False	2	9	1.144	0.2479999999999999	-0.08827962819524326	-0.01756397340972516
0	0.0	36	36	1+20	1	20	21	True	21		0.965	0.08966666666666656	-0.6042125200368343	-0.4593761906887787
0	0.0	37	37	7+20	7	20	27	True	27		1.051	0.137	-0.35633414742020403	-0.327297590996935
0	0.0	38	38	8+6	8	6	14	True	14		0.987	0.06899999999999995	-0.5408017735535102	-0.5170443116809919
0	0.0	39	39	20+16	20	16	36	True	36		1.374	0.42766666666666675	0.5746509032213272	0.48377662682903305
0	0.0	4	4	2+15	2	15	17	True	17		1.132	0.24533333333333318	-0.12286730809523824	-0.02500502127968828
0	0.0	40	40	6+2	6	2	8	True	8		0.948	0.048666666666666636	-0.6532117332284939	-0.5737823016894598
0	0.0	41	41	0+17	0	17	17	True	17		0.897	0.010333333333333306	-0.8002093728034723	-0.6807473648201781
0	0.0	42	42	4+0	4	0	4	True	4		0.97	0.057666666666666644	-0.5898009867451698	-0.5486687651283346
0	0.0	43	43	8+5	8	5	13	True	13		0.837		-0.9731477723034472	
0	0.0	44	44	14+5	14	5	19	False	1	9	1.023		-0.43703873385352565	
0	0.0	45	45	3+2	3	2	5	True	5		0.894	0.005666666666666709	-0.808856292778471	-0.6937691985926131
0	0.0	46	46	4+10	4	10	14	True	14		0.986	0.06799999999999995	-0.5436840802118431	-0.519834704632228
0	0.0	47	47	3+6	3	6	9	True	9		0.995	0.025333333333333208	-0.5177433202868469	-0.6388914705516363
0	0.0	48	48	11+6	11	6	17	True	17		0.989	0.10233333333333328	-0.5350371602368444	-0.4240312133064543
0	0.0	49	49	15+20	15	20	35	True	35		1.302	0.2929999999999999	0.3671248238213573	0.10800370939590072
0	0.0	5	5	13+2	13	2	15	True	15		1.044	0.07466666666666677	-0.3765102940285341	-0.5012320849573201
0	0.0	50	50	17+12	17	12	29	True	29		1.228	0.33199999999999996	0.15383413110472158	0.2168290344941098
0	0.0	51	51	20+0	20	0	20	True	20		1.159	0.18533333333333346	-0.04504502832024922	-0.19242859835385517
0	0.0	52	52	8+9	8	9	17	True	17		1.263	0.3763333333333332	0.2547148641463733	0.3405364553322445
0	0.0	53	53	6+5	6	5	11	True	11		0.965	0.16633333333333333	-0.6042125200368343	-0.24544606442734196
0	0.0	54	54	15+17	15	17	32	True	32		1.176	0.16533333333333333	0.003954184871410016	-0.2482364573785781
0	0.0	55	55	19+2	19	2	21	True	21		1.226	0.35066666666666657	0.14806951778805577	0.2689163695838507
0	0.0	56	56	4+5	4	5	9	True	9		1.008	0.03833333333333322	-0.48027333372851905	-0.6026163621855667
0	0.0	57	57	20+2	20	2	22	True	22		0.878	-0.06433333333333335	-0.8549731993117976	-0.8890967051791422
0	0.0	58	58	15+2	15	2	17	True	17		0.91	0.023333333333333317	-0.7627393862451444	-0.6444722564541083
0	0.0	59	59	4+7	4	7	11	True	11		0.953	0.15433333333333332	-0.6388001999368293	-0.2789307798421755
0	0.0	6	6	16+16	16	16	32	True	32		1.516	0.5053333333333334	0.9839384487046005	0.7004971460417057
0	0.0	60	60	16+18	16	18	34	False	36		1.309	0.31699999999999995	0.38730097042968736	0.17497314022556784
0	0.0	61	61	1+13	1	13	14	True	14		1.013	0.09499999999999986	-0.46586180043685477	-0.44449409494885284
0	0.0	62	62	1+19	1	19	20	True	20		1.202	0.2283333333333334	0.0788941579880658	-0.07244170145070188
0	0.0	63	63	19+18	19	18	37	True	37		1.274	0.398	0.2864202373880357	0.4009949692756944
0	0.0	64	64	17+18	17	18	35	True	35		1.64	0.6309999999999998	1.3413444743378813	1.0511565269137115
0	0.0	65	65	5+0	5	0	5	True	5		1.003	0.11466666666666658	-0.49468486702018394	-0.3896163669078755
0	0.0	66	66	7+4	7	4	11	True	11		0.835	0.03633333333333333	-0.978912385620113	-0.6081971480880386
0	0.0	67	67	13+0	13	0	13	False	1	3	0.875		-0.8636201192867964	
0	0.0	68	68	12+9	12	9	21	True	21		1.09	0.21466666666666667	-0.24392418774522	-0.11057707178426243
0	0.0	69	69	0+18	0	18	18	False	1	8	0.905	0.00550000000000006	-0.7771509195368089	-0.6942342640844857
0	0.0	7	7	0+8	0	8	8	True	8		1.142	0.2426666666666666	-0.09404424151190909	-0.032446069149651084
0	0.0	70	70	14+2	14	2	16	True	16		0.995		-0.5177433202868469	
0	0.0	71	71	13+15	13	15	28	True	28		1.148	0.11166666666666658	-0.0767504015619116	-0.39798754576158385
0	0.0	72	72	5+6	5	6	11	True	11		0.948	0.14933333333333332	-0.6532117332284939	-0.29288274459835617
0	0.0	73	73	3+17	3	17	20	True	20		0.981	0.007333333333333414	-0.5580956135035078	-0.6891185436738861
0	0.0	74	74	18+0	18	0	18	False	1	8	0.901	0.0015000000000000568	-0.7886801461701406	-0.7053958358894302
0	0.0	75	75	5+14	5	14	19	True	19		0.898		-0.7973270661451394	
0	0.0	76	76	13+13	13	13	26	True	26		1.123	0.11299999999999999	-0.14880806802023416	-0.39426702182660217
0	0.0	77	77	12+17	12	17	29	True	29		1.046	0.15000000000000002	-0.37074568071186825	-0.29102248263086533
0	0.0	78	78	16+4	16	4	20	True	20		0.906	-0.06766666666666654	-0.774268612878476	-0.8983980150165956
0	0.0	79	79	11+10	11	10	21	True	21		1.044	0.16866666666666663	-0.3765102940285341	-0.23893514754112444
0	0.0	8	8	10+14	10	14	24	True	24		1.296	0.3483333333333334	0.3498309838713598	0.2624054526976335
0	0.0	80	80	0+13	0	13	13	False	1	3	0.904		-0.7800332261951418	
0	0.0	81	81	2+12	2	12	14	False	1	4	1.008	0.08999999999999997	-0.48027333372851905	-0.45844605970503316
0	0.0	82	82	3+14	3	14	17	False	174		1.202	0.31533333333333324	0.0788941579880658	0.17032248530684085
0	0.0	83	83	12+15	12	15	27	True	27		0.978	0.06400000000000006	-0.5667425334785064	-0.5309962764371723
0	0.0	84	84	20+3	20	3	23	True	23		0.974	-0.00033333333333340764	-0.5782717601118381	-0.7105115563000302
0	0.0	85	85	2+18	2	18	20	True	20		0.917	-0.05666666666666653	-0.7425632396368139	-0.8677036925529982
0	0.0	86	86	20+19	20	19	39	True	39		1.218	0.2450000000000001	0.12501106452139243	-0.02593515226343293
0	0.0	87	87	9+2	9	2	11	True	11		0.897	0.09833333333333338	-0.8002093728034723	-0.43519278511139853
0	0.0	88	88	10+18	10	18	28	True	28		1.165	0.1286666666666667	-0.027751188370251728	-0.35055086559056936
0	0.0	89	89	9+14	9	14	23	True	23		1.286	0.31166666666666665	0.32100791728803063	0.1600910444856419
0	0.0	9	9	17+9	17	9	26	False	3		2.455	1.445	3.690424400879205	3.3225363892199202
0	0.0	90	90	2+20	2	20	22	True	22		0.981	0.03866666666666663	-0.5580956135035078	-0.6016862312018211
0	0.0	91	91	2+1	2	1	3	True	3		1.066	0.16433333333333333	-0.31309954754520997	-0.2510268503298142
0	0.0	92	92	14+13	14	13	27	True	27		0.948	0.03400000000000003	-0.6532117332284939	-0.6147080649742561
0	0.0	93	93	14+17	14	17	31	True	31		1.118	0.2226666666666668	-0.16321960131189842	-0.08825392817437308
0	0.0	94	94	17+16	17	16	33	True	33		1.14	0.20799999999999985	-0.09980885482857492	-0.12917969145917038
0	0.0	95	95	7+13	7	13	20	True	20		0.934	-0.03966666666666652	-0.6935640264451544	-0.820267012381984
0	0.0	96	96	2+4	2	4	6	True	6		0.909	-0.21566666666666645	-0.7656216929034773	-1.3113761717995422
0	0.0	97	97	18+20	18	20	38	True	38		1.213	0.15566666666666684	0.11059953122972818	-0.2752102559071935
0	0.0	98	98	6+3	6	3	9	True	9		0.926	-0.04366666666666674	-0.7166224797118177	-0.831428584186929
0	0.0	99	99	4+1	4	1	5	True	5		0.885	-0.0033333333333332993	-0.8347970527034673	-0.7188827351537382
0	1.0	0	147	17+4	17	4	21	True	21		0.861	-0.01433333333333342	-0.9039724125034572	-0.749577057617336
0	1.0	1	148	20+12	20	12	32	True	32		1.314	0.30333333333333345	0.40171250372135225	0.1368377698920079
0	1.0	10	157	8+11	8	11	19	True	19		1.021		-0.4428033471701915	
0	1.0	100	247	20+1	20	1	21	True	21		0.985	0.10966666666666658	-0.5465663868701761	-0.40356833166405615
0	1.0	101	248	12+6	12	6	18	True	18		1.149	0.24950000000000006	-0.07386809490357836	-0.0133783839828705
0	1.0	102	249	8+0	8	0	8	True	8		1.056	0.15666666666666673	-0.34192261412853914	-0.27241986295595766
0	1.0	103	250	6+19	6	19	25	False	27		1.396	0.3316666666666668	0.6380616497046506	0.21589890351036484
0	1.0	104	251	7+2	7	2	9	True	9		1.097	0.1273333333333332	-0.22374804113688992	-0.3542713895255514
0	1.0	105	252	19+17	19	17	36	True	36		1.124	0.17766666666666675	-0.1459257613619009	-0.21382161097999894
0	1.0	106	253	7+14	7	14	21	True	21		1.311	0.43566666666666654	0.3930655837463532	0.5060997704389215
0	1.0	107	254	12+7	12	7	19	True	19		1.301		0.364242517163024	
0	1.0	108	255	16+12	16	12	28	True	28		1.813	0.7766666666666666	1.8399835262294753	1.4576237668104413
0	1.0	109	256	20+6	20	6	26	True	26		1.442	0.43199999999999994	0.7706477559879648	0.49586832961772254
0	1.0	11	158	17+17	17	17	34	True	34		1.164	0.17199999999999993	-0.03063349502858496	-0.22963383770367077
0	1.0	110	257	6+7	6	7	13	True	13		0.929		-0.707975559736819	
0	1.0	111	258	7+9	7	9	16	True	16		1.075		-0.2871587876202141	
0	1.0	112	259	17+11	17	11	28	True	28		1.192	0.15566666666666662	0.05007109140473665	-0.2752102559071941
0	1.0	113	260	6+9	6	9	15	True	15		1.512	0.5426666666666667	0.9724092220712688	0.8046718162211878
0	1.0	114	261	9+19	9	19	28	True	28		1.935	0.8986666666666667	2.1916249385460906	1.7980517068612492
0	1.0	115	262	9+3	9	3	12	False	11		1.054	0.16300000000000003	-0.34768722744520497	-0.25474737426479566
0	1.0	116	263	8+17	8	17	25	True	25		1.126	0.06166666666666676	-0.14016114804523572	-0.5375071933233898
0	1.0	117	264	3+13	3	13	16	True	16		0.914		-0.7512101596118127	
0	1.0	118	265	17+19	17	19	36	True	36		1.24	0.29366666666666663	0.18842181100471656	0.10986397136339157
0	1.0	119	266	4+13	4	13	17	True	17		1.31	0.42333333333333334	0.3901832770880206	0.47168492404034296
0	1.0	12	159	2+14	2	14	16	True	16		1.226		0.14806951778805577	
0	1.0	120	267	13+5	13	5	18	True	18		1.187	0.2875000000000001	0.0356595581130724	0.09265654816410246
0	1.0	121	268	18+5	18	5	23	True	23		1.11	0.1356666666666667	-0.18627805457856172	-0.3310181149319164
0	1.0	122	269	1+14	1	14	15	True	15		1.049	0.07966666666666666	-0.36209876073686986	-0.48728012020113975
0	1.0	123	270	7+5	7	5	12	True	12		0.989	0.09799999999999998	-0.5350371602368444	-0.4361229160951441
0	1.0	124	271	19+16	19	16	35	True	35		1.29	0.2809999999999999	0.3325371439213623	0.07451899398106715
0	1.0	125	272	18+13	18	13	31	True	31		1.653	0.7576666666666667	1.3788144608962094	1.404606300736955
0	1.0	126	273	7+19	7	19	26	True	26		1.767	0.7569999999999999	1.707397419946161	1.402746038769464
0	1.0	127	274	10+0	10	0	10	True	10		1.007	0.20666666666666667	-0.48315564038685227	-0.13290021539415148
0	1.0	128	275	4+11	4	11	15	True	15		1.008	0.03866666666666674	-0.48027333372851905	-0.6016862312018207
0	1.0	129	276	6+1	6	1	7	True	7		1.151	0.16933333333333322	-0.06810348158691254	-0.23707488557363388
0	1.0	13	160	18+11	18	11	29	True	29		1.039	0.1429999999999999	-0.390921827320199	-0.31055523328951856
0	1.0	130	277	0+1	0	1	1	True	1		1.054	0.21466666666666678	-0.34768722744520497	-0.11057707178426211
0	1.0	131	278	7+10	7	10	17	True	17		0.985	0.09833333333333327	-0.5465663868701761	-0.43519278511139886
0	1.0	132	279	8+14	8	14	22	True	22		1.24	0.29766666666666663	0.18842181100471656	0.1210255431683361
0	1.0	133	280	14+6	14	6	20	True	20		1.012	0.03833333333333344	-0.4687441070951874	-0.602616362185566
0	1.0	134	281	11+2	11	2	13	True	13		1.022		-0.4399210405118582	
0	1.0	135	282	9+0	9	0	9	True	9		1.034	0.06433333333333324	-0.40533336061186326	-0.5300661454534272
0	1.0	136	283	16+1	16	1	17	True	17		0.952	0.06533333333333324	-0.6416825065951622	-0.5272757525021912
0	1.0	137	284	0+9	0	9	9	True	9		1.123	0.1533333333333332	-0.14880806802023416	-0.28172117279341197
0	1.0	138	285	3+9	3	9	12	True	12		1.008	0.11699999999999999	-0.48027333372851905	-0.38310545002165763
0	1.0	139	286	2+6	2	6	8	True	8		0.975	0.07566666666666666	-0.5753894534535052	-0.49844169200608424
0	1.0	14	161	1+3	1	3	4	True	4		0.968	0.05566666666666664	-0.5955656000618357	-0.5542495510308069
0	1.0	140	287	4+18	4	18	22	True	22		1.079	0.1366666666666666	-0.2756295609868824	-0.3282277219806806
0	1.0	141	288	6+15	6	15	21	True	21		1.201	0.32566666666666666	0.0760118513297332	0.19915654580294775
0	1.0	142	289	15+8	15	8	23	True	23		1.13	0.1556666666666665	-0.12863192141190408	-0.27521025590719445
0	1.0	143	290	17+2	17	2	19	True	19		1.037		-0.3966864406368648	
0	1.0	144	291	5+12	5	12	17	True	17		1.121	0.23433333333333328	-0.15457268133689997	-0.055699343743285404
0	1.0	145	292	5+1	5	1	6	True	6		1.142	0.017333333333333423	-0.09404424151190909	-0.6612146141615248
0	1.0	146	293	13+4	13	4	17	True	17		1.095	0.20833333333333326	-0.22951265445355576	-0.1282495604754248
0	1.0	15	162	18+16	18	16	34	True	34		1.147	0.15500000000000003	-0.0796327082202442	-0.2770705178746847
0	1.0	16	163	2+10	2	10	12	True	12		0.865	-0.026000000000000023	-0.8924431858701255	-0.782131642048424
0	1.0	17	164	16+19	16	19	35	False	3		1.284	0.2749999999999999	0.3152433039713648	0.057776636273650366
0	1.0	18	165	18+15	18	15	33	True	33		1.383	0.45099999999999996	0.6005916631463231	0.548885795691209
0	1.0	19	166	6+14	6	14	20	True	20		1.429	0.4553333333333335	0.7331777694296372	0.5609774984798994
0	1.0	2	149	18+2	18	2	20	True	20		0.901	-0.07266666666666655	-0.7886801461701406	-0.9123499797727762
0	1.0	20	167	1+11	1	11	12	True	12		1.497	0.6060000000000001	0.9291746221962753	0.9813967031328092
0	1.0	21	168	1+17	1	17	18	False	1	8	0.947	0.04749999999999999	-0.6560940398868268	-0.5770377601325686
0	1.0	22	169	1+0	1	0	1	True	1		0.933	0.09366666666666679	-0.6964463331034874	-0.44821461888383357
0	1.0	23	170	0+10	0	10	10	True	10		0.889	0.08866666666666678	-0.8232678260701356	-0.46216658364001423
0	1.0	24	171	9+11	9	11	20	True	20		1.07	0.09633333333333349	-0.3015703209118783	-0.4407735710138705
0	1.0	25	172	20+20	20	20	40	True	40		1.143	0.32000000000000006	-0.09116193485357585	0.18334431907927654
0	1.0	26	173	3+11	3	11	14	True	14		1.182	0.2639999999999999	0.021248024821407505	0.027082313810052928
0	1.0	27	174	15+10	15	10	25	True	25		1.154	0.08966666666666678	-0.05945656161191411	-0.4593761906887781
0	1.0	28	175	19+15	19	15	34	True	34		1.09	0.09800000000000009	-0.24392418774522	-0.4361229160951438
0	1.0	29	176	10+20	10	20	30	False	1		0.993	0.04266666666666663	-0.5235079336035128	-0.5905246593968766
0	1.0	3	150	10+7	10	7	17	True	17		0.913	0.02633333333333332	-0.7540924662701456	-0.6361010776003999
0	1.0	30	177	14+20	14	20	34	True	34		1.142	0.1499999999999999	-0.09404424151190909	-0.2910224826308656
0	1.0	31	178	3+12	3	12	15	True	15		1.038	0.06866666666666676	-0.3938041339785316	-0.5179744426647369
0	1.0	32	179	3+1	3	1	4	True	4		0.996	0.08366666666666667	-0.514861013628514	-0.4761185483961952
0	1.0	33	180	19+5	19	5	24	True	24		1.198	0.2503333333333333	0.06736493135473415	-0.011053056523507316
0	1.0	34	181	20+18	20	18	38	True	38		0.984	-0.07333333333333325	-0.549448693528509	-0.9142102417402671
0	1.0	35	182	6+18	6	18	24	True	24		1.073	0.1253333333333333	-0.2929234009368799	-0.35985217542802334
0	1.0	36	183	11+17	11	17	28	True	28		1.084	0.047666666666666746	-0.2612180276952175	-0.5765726946406956
0	1.0	37	184	8+16	8	16	24	True	24		1.113	0.16533333333333333	-0.1776311346035633	-0.2482364573785781
0	1.0	38	185	20+11	20	11	31	False	33		1.615	0.7196666666666667	1.2692868078795587	1.2985713685899822
0	1.0	39	186	5+17	5	17	22	False	2	2	1.402	0.45966666666666656	0.6553554896546482	0.5730692012685886
0	1.0	4	151	8+19	8	19	27	True	27		1.182	0.268	0.021248024821407505	0.03824388561499776
0	1.0	40	187	20+15	20	15	35	True	35		1.157	0.1479999999999999	-0.050809641636915044	-0.2966032685333379
0	1.0	41	188	2+19	2	19	21	True	21		0.995	0.11966666666666659	-0.5177433202868469	-0.37566440215169483
0	1.0	42	189	9+15	9	15	24	True	24		1.08	0.1323333333333334	-0.2727472543285492	-0.3403194247693701
0	1.0	43	190	12+2	12	2	14	True	14		0.998	0.07999999999999996	-0.5090964003118482	-0.4863499892173945
0	1.0	44	191	12+14	12	14	26	False	36		1.186	0.17599999999999993	0.03277725145473916	-0.21847226589872623
0	1.0	45	192	14+3	14	3	17	True	17		2.847	1.9603333333333333	4.820288610945706	4.760518890090271
0	1.0	46	193	19+6	19	6	25	True	25		1.227	0.16266666666666696	0.150951824446389	-0.25567750524854027
0	1.0	47	194	15+15	15	15	30	True	30		1.05	0.09966666666666668	-0.35921645407853664	-0.4314722611764171
0	1.0	48	195	13+9	13	9	22	True	22		1.29	0.3476666666666667	0.3325371439213623	0.2605451907301426
0	1.0	49	196	19+11	19	11	30	True	30		1.285	0.33466666666666656	0.3181256106296974	0.22427008236407261
0	1.0	5	152	0+15	0	15	15	True	15		0.834	-0.1353333333333333	-0.9817946922784458	-1.0872146047169071
0	1.0	50	197	2+9	2	9	11	True	11		0.966	0.16733333333333333	-0.6013302133785015	-0.24265567147610584
0	1.0	51	198	6+17	6	17	23	True	23		1.349	0.3746666666666666	0.5025932367630039	0.33588580041351784
0	1.0	52	199	1+18	1	18	19	True	19		0.953		-0.6388001999368293	
0	1.0	53	200	1+6	1	6	7	True	7		1.002	0.020333333333333203	-0.49756717367851655	-0.652843435307817
0	1.0	54	201	4+19	4	19	23	True	23		0.997	0.022666666666666613	-0.5119787069701811	-0.6463325184215992
0	1.0	55	202	16+13	16	13	29	True	29		1.115	0.21899999999999997	-0.17186652128689747	-0.09848536899557263
0	1.0	56	203	4+4	4	4	8	True	8		1.228	0.32866666666666666	0.15383413110472158	0.20752772465665614
0	1.0	57	204	16+2	16	2	18	True	18		0.978	0.07850000000000001	-0.5667425334785064	-0.4905355786442485
0	1.0	58	205	8+18	8	18	26	True	26		2.686	1.676	4.356237238954107	3.9671171609554654
0	1.0	59	206	19+0	19	0	19	True	19		1.005		-0.4889202537035181	
0	1.0	6	153	5+8	5	8	13	True	13		0.902		-0.7857978395118077	
0	1.0	60	207	17+13	17	13	30	True	30		1.109	0.15866666666666662	-0.18916036123689495	-0.26683907705348575
0	1.0	61	208	18+10	18	10	28	True	28		1.253	0.21666666666666656	0.22589179756304414	-0.10499628588179048
0	1.0	62	209	11+0	11	0	11	True	11		1.066	0.2673333333333334	-0.31309954754520997	0.03638362364750721
0	1.0	63	210	3+3	3	3	6	True	6		0.939	-0.18566666666666654	-0.6791524931534901	-1.2276643832624587
0	1.0	64	211	9+4	9	4	13	True	13		0.957		-0.6272709733034977	
0	1.0	65	212	9+8	9	8	17	True	17		1.168	0.2813333333333332	-0.019104268395253303	0.07544912496481242
0	1.0	66	213	17+7	17	7	24	True	24		1.077	0.1293333333333333	-0.28139417430354824	-0.3486906036230788
0	1.0	67	214	6+6	6	6	12	True	12		1.031	0.1399999999999999	-0.4139802805868623	-0.3189264121432269
0	1.0	68	215	12+16	12	16	28	False	18		1.087	0.05066666666666664	-0.25257110772021907	-0.5682015157869875
0	1.0	69	216	5+10	5	10	15	True	15		0.895	-0.07433333333333325	-0.805973986120138	-0.9170006346915032
0	1.0	7	154	20+13	20	13	33	True	33		1.02	0.08799999999999997	-0.44568565382852404	-0.4640268456075054
0	1.0	70	217	14+10	14	10	24	True	24		1.032	0.08433333333333337	-0.4110979739285291	-0.4742582864287044
0	1.0	71	218	5+16	5	16	21	True	21		1.253	0.3776666666666665	0.22589179756304414	0.3442569792672259
0	1.0	72	219	17+10	17	10	27	True	27		1.115	0.20100000000000007	-0.17186652128689747	-0.14871244211782267
0	1.0	73	220	12+18	12	18	30	True	30		1.154	0.20366666666666655	-0.05945656161191411	-0.14127139424786017
0	1.0	74	221	10+6	10	6	16	False	1	6	1.037		-0.3966864406368648	
0	1.0	75	222	11+16	11	16	27	True	27		1.189	0.27500000000000013	0.04142417142973823	0.05777663627365098
0	1.0	76	223	15+19	15	19	34	True	34		1.551	0.5589999999999999	1.084819181746252	0.8502482344247108
0	1.0	77	224	5+9	5	9	14	True	14		1.017	0.09899999999999987	-0.4543325738035231	-0.4333325231439083
0	1.0	78	225	8+10	8	10	18	True	18		0.977	0.07750000000000001	-0.5696248401368394	-0.49332597159548464
0	1.0	79	226	11+8	11	8	19	True	19		0.955		-0.6330355866201636	
0	1.0	8	155	16+15	16	15	31	True	31		0.994	0.09866666666666668	-0.5206256269451799	-0.43426265412765325
0	1.0	80	227	1+9	1	9	10	True	10		0.978	0.17766666666666675	-0.5667425334785064	-0.21382161097999894
0	1.0	81	228	19+12	19	12	31	True	31		1.231	0.3356666666666668	0.16248105107972066	0.22706047531530935
0	1.0	82	229	13+1	13	1	14	True	14		0.909	-0.009000000000000008	-0.7656216929034773	-0.7346949618774098
0	1.0	83	230	9+1	9	1	10	True	10		0.992	0.19166666666666676	-0.5263902402618457	-0.17475610966269312
0	1.0	84	231	4+17	4	17	21	True	21		1.054	0.17866666666666664	-0.34768722744520497	-0.21103121802876312
0	1.0	85	232	3+7	3	7	10	True	10		0.961	0.16066666666666674	-0.615741746670166	-0.2612582911510132
0	1.0	86	233	12+13	12	13	25	True	25		1.1	0.03566666666666696	-0.21510112116189087	-0.6100574100555285
0	1.0	87	234	6+4	6	4	10	True	10		0.998	0.19766666666666677	-0.5090964003118482	-0.15801375195527634
0	1.0	88	235	10+17	10	17	27	True	27		1.084	0.17000000000000015	-0.2612180276952175	-0.2352146236061424
0	1.0	89	236	15+18	15	18	33	True	33		1.375	0.44299999999999995	0.5775332098796597	0.52656265208132
0	1.0	9	156	10+4	10	4	14	True	14		1.108	0.19000000000000006	-0.19204266789522756	-0.1794067645814201
0	1.0	90	237	4+3	4	3	7	True	7		1.177	0.19533333333333325	0.006836491529743251	-0.1645246688414945
0	1.0	91	238	9+9	9	9	18	True	18		1.039	0.13949999999999996	-0.390921827320199	-0.32032160861884484
0	1.0	92	239	11+9	11	9	20	True	20		1.119	0.14533333333333343	-0.1603372946535658	-0.3040443164033004
0	1.0	93	240	18+12	18	12	30	True	30		1.225	0.2746666666666667	0.14518721112972316	0.0568465052899054
0	1.0	94	241	9+18	9	18	27	True	27		1.172	0.258	-0.007575041761921643	0.010339956102636456
0	1.0	95	242	19+3	19	3	22	True	22		1.107	0.16466666666666663	-0.19492497455356078	-0.250096719346069
0	1.0	96	243	9+20	9	20	29	True	29		1.165	0.269	-0.027751188370251728	0.041034278566233894
0	1.0	97	244	6+16	6	16	22	True	22		2.091	1.1486666666666667	2.6412647772460254	2.495649944670281
0	1.0	98	245	11+4	11	4	15	True	15		1.068	0.09866666666666679	-0.30733493422854413	-0.43426265412765297
0	1.0	99	246	3+8	3	8	11	True	11		0.947	0.14833333333333332	-0.6560940398868268	-0.2956731375495923
0	2.0	0	294	19+9	19	9	28	True	28		1.721	0.6846666666666668	1.5748113136628477	1.200907615296718
0	2.0	1	295	10+3	10	3	13	True	13		0.926		-0.7166224797118177	
0	2.0	10	304	4+2	4	2	6	False	8		1.039	-0.08566666666666656	-0.390921827320199	-0.9486250881388459
0	2.0	100	394	20+5	20	5	25	True	25		0.958	-0.10633333333333317	-0.6243886666451648	-1.006293209131059
0	2.0	101	395	11+13	11	13	24	True	24		1.13	0.18233333333333324	-0.12863192141190408	-0.2007997772075642
0	2.0	102	396	0+7	0	7	7	True	7		0.965	-0.01666666666666683	-0.6042125200368343	-0.7560879745035538
0	2.0	103	397	9+7	9	7	16	True	16		1.089		-0.24680649440355326	
0	2.0	104	398	8+12	8	12	20	True	20		0.919	-0.05466666666666653	-0.7367986263201481	-0.8621229066505258
0	2.0	105	399	11+15	11	15	26	True	26		1.249	0.2390000000000001	0.21436257092971311	-0.042677509970849715
0	2.0	106	400	14+14	14	14	28	True	28		1.26	0.22366666666666668	0.24606794417137487	-0.08546353522313725
0	2.0	107	401	14+1	14	1	15	True	15		1.076	0.1066666666666668	-0.28427648096188085	-0.4119395105177639
0	2.0	108	402	10+10	10	10	20	True	20		1.001	0.02733333333333332	-0.5004494803368498	-0.6333106846491637
0	2.0	109	403	2+3	2	3	5	True	5		0.972	0.08366666666666667	-0.584036373428504	-0.4761185483961952
0	2.0	11	305	19+7	19	7	26	True	26		1.343	0.33299999999999996	0.4852993968130065	0.21961942744534593
0	2.0	110	404	7+0	7	0	7	True	7		0.909	-0.07266666666666677	-0.7656216929034773	-0.9123499797727769
0	2.0	111	405	14+16	14	16	30	True	30		1.064	0.1136666666666667	-0.3188641608618758	-0.3924067598591113
0	2.0	112	406	16+0	16	0	16	False	1	6	1.042		-0.3822749073451999	
0	2.0	113	407	10+19	10	19	29	True	29		1.208	0.31199999999999994	0.09618799793806329	0.16102117546938718
0	2.0	114	408	10+16	10	16	26	True	26		1.635	0.625	1.326932941046217	1.0344141692062954
0	2.0	115	409	11+12	11	12	23	True	23		4.484	3.5096666666666665	9.538624610636685	9.083767702538779
0	2.0	116	410	6+20	6	20	26	True	26		1.049	0.038999999999999924	-0.36209876073686986	-0.6007561002180758
0	2.0	117	411	4+20	4	20	24	True	24		1.11	0.16233333333333344	-0.18627805457856172	-0.25660763623228616
0	2.0	118	412	16+3	16	3	19	True	19		0.989		-0.5350371602368444	
0	2.0	119	413	11+20	11	20	31	True	31		2.083	1.1876666666666669	2.6182063239793623	2.6044752697684905
0	2.0	12	306	2+8	2	8	10	True	10		1.127	0.32666666666666677	-0.1372788413869025	0.20194693875418418
0	2.0	120	414	11+7	11	7	18	True	18		0.939	0.03949999999999998	-0.6791524931534901	-0.5993609037424575
0	2.0	121	415	15+12	15	12	27	True	27		1.751	0.837	1.6612805134128343	1.6259774748683542
0	2.0	122	416	5+19	5	19	24	True	24		1.408	0.46033333333333326	0.6726493296046456	0.5749294632360795
0	2.0	123	417	6+12	6	12	18	True	18		1.186	0.2865	0.03277725145473916	0.08986615521286602
0	2.0	124	418	7+6	7	6	13	True	13		0.998		-0.5090964003118482	
0	2.0	125	419	18+19	18	19	37	True	37		1.422	0.5459999999999999	0.7130016228213064	0.8139731260586411
0	2.0	126	420	14+7	14	7	21	True	21		1.056	0.18066666666666664	-0.34192261412853914	-0.20545043212629086
0	2.0	127	421	0+11	0	11	11	True	11		0.876	0.07733333333333337	-0.8607378126284635	-0.4937910370873573
0	2.0	128	422	16+7	16	7	23	True	23		2.077	1.1026666666666665	2.6009124840293643	2.3672918689134184
0	2.0	129	423	14+18	14	18	32	True	32		1.386	0.3753333333333333	0.6092385831213215	0.3377460623810087
0	2.0	13	307	18+6	18	6	24	True	24		1.139	0.19133333333333336	-0.10269116148690752	-0.1756862406464387
0	2.0	130	424	7+3	7	3	10	True	10		1.017	0.21666666666666667	-0.4543325738035231	-0.10499628588179016
0	2.0	131	425	11+3	11	3	14	True	14		0.963	0.04499999999999993	-0.6099771333535002	-0.5840137425106591
0	2.0	132	426	3+18	3	18	21	True	21		0.993	0.11766666666666659	-0.5235079336035128	-0.3812451880541671
0	2.0	133	427	18+14	18	14	32	True	32		1.869	0.8583333333333334	2.0013926990961184	1.6855058578280586
0	2.0	134	428	7+16	7	16	23	True	23		1.24	0.2656666666666666	0.18842181100471656	0.03173296872877992
0	2.0	135	429	5+4	5	4	9	True	9		0.923	-0.046666666666666745	-0.7252693996868165	-0.8397997630406374
0	2.0	136	430	5+13	5	13	18	True	18		1.341	0.4415	0.47953478349634066	0.5223770626544659
0	2.0	137	431	19+20	19	20	39	True	39		2.004	1.0310000000000001	2.3905040979710614	2.1673137074081636
0	2.0	138	432	0+20	0	20	20	True	20		0.915	-0.058666666666666534	-0.7483278529534798	-0.8732844784554704
0	2.0	139	433	10+8	10	8	18	True	18		1.113	0.21350000000000002	-0.1776311346035633	-0.11383253022737119
0	2.0	14	308	10+11	10	11	21	True	21		2.116	1.2406666666666668	2.713322443704348	2.752366096184005
0	2.0	140	434	15+1	15	1	16	True	16		0.886		-0.8319147460451344	
0	2.0	141	435	11+1	11	1	12	True	12		1.753	0.8619999999999999	1.6670451267295003	1.6957372986492572
0	2.0	142	436	12+12	12	12	24	True	24		1.199	0.2513333333333334	0.07024723801306737	-0.008262663572270875
0	2.0	143	437	7+15	7	15	22	True	22		3.11	2.1676666666666664	5.578335262087262	5.339060361979895
0	2.0	144	438	13+18	13	18	31	True	31		1.178	0.2826666666666666	0.009718798188075846	0.07916964889979414
0	2.0	145	439	13+8	13	8	21	True	21		2.164	1.2886666666666668	2.8516731633043277	2.8863049578433393
0	2.0	146	440	17+6	17	6	23	True	23		1.243	0.2686666666666667	0.19706873097971564	0.04010414758248862
0	2.0	15	309	7+8	7	8	15	True	15		1.033	0.06366666666666665	-0.4082156672701965	-0.5319264074209178
0	2.0	16	310	20+10	20	10	30	True	30		1.532	0.5816666666666667	1.030055355237927	0.9134971413193965
0	2.0	17	311	6+0	6	0	6	True	6		1.067	-0.05766666666666653	-0.31021724088687735	-0.8704940855042342
0	2.0	18	312	5+18	5	18	23	True	23		0.983	0.0086666666666666	-0.5523310001868419	-0.685398019738905
0	2.0	19	313	3+19	3	19	22	True	22		0.995	0.05266666666666664	-0.5177433202868469	-0.5626207298845153
0	2.0	2	296	13+14	13	14	27	True	27		1.363	0.44900000000000007	0.5429455299796647	0.5433050097887371
0	2.0	20	314	0+14	0	14	14	True	14		1.114	0.19600000000000006	-0.17474882794523006	-0.16266440687400333
0	2.0	21	315	2+17	2	17	19	True	19		1.091		-0.24104188108688743	
0	2.0	22	316	20+14	20	14	34	True	34		1.357	0.365	0.5256516900296673	0.3089120018849021
0	2.0	23	317	13+16	13	16	29	True	29		2.738	1.842	4.506117185187419	4.430322390860663
0	2.0	24	318	9+5	9	5	14	True	14		0.912	-0.006000000000000005	-0.7569747729284786	-0.7263237830237014
0	2.0	25	319	11+5	11	5	16	True	16		1.047		-0.3678633740535357	
0	2.0	26	320	14+15	14	15	29	True	29		1.264	0.368	0.2575971708047065	0.3172831807386105
0	2.0	27	321	17+5	17	5	22	True	22		1.102	0.15966666666666673	-0.20933650784522503	-0.2640486841022493
0	2.0	28	322	0+16	0	16	16	True	16		0.898		-0.7973270661451394	
0	2.0	29	323	16+20	16	20	36	True	36		1.438	0.4916666666666666	0.7591185293546331	0.6623617757081448
0	2.0	3	297	14+19	14	19	33	True	33		1.236	0.30399999999999994	0.17689258437138491	0.13869803185949814
0	2.0	30	324	14+0	14	0	14	True	14		0.985	0.06699999999999995	-0.5465663868701761	-0.5226250975834642
0	2.0	31	325	20+4	20	4	24	True	24		1.177	0.2293333333333334	0.006836491529743251	-0.06965130849946574
0	2.0	32	326	13+6	13	6	19	True	19		1.578		1.162641461521241	
0	2.0	33	327	1+2	1	2	3	True	3		1.044	0.1423333333333333	-0.3765102940285341	-0.3124154952570091
0	2.0	34	328	13+7	13	7	20	True	20		1.015	0.04133333333333333	-0.46009718712018893	-0.5942451833318579
0	2.0	35	329	19+14	19	14	33	True	33		1.322	0.39	0.4247709569880156	0.3786718256658054
0	2.0	36	330	4+15	4	15	19	True	19		1.06		-0.33039338749520747	
0	2.0	37	331	9+12	9	12	21	True	21		1.523	0.6476666666666665	1.0041145953129305	1.0976630761009805
0	2.0	38	332	12+1	12	1	13	True	13		0.989		-0.5350371602368444	
0	2.0	39	333	2+13	2	13	15	True	15		1.104	0.13466666666666682	-0.2035718945285592	-0.33380850788315225
0	2.0	4	298	9+13	9	13	22	False	21		1.134	0.19166666666666654	-0.11710269477857241	-0.17475610966269373
0	2.0	40	334	19+13	19	13	32	True	32		1.299	0.28833333333333333	0.3584779038463582	0.09498187562346565
0	2.0	41	335	0+0	0	0	0	True	0		1.364	0.5096666666666667	0.545827836637998	0.7125888488303954
0	2.0	42	336	6+13	6	13	19	True	19		1.14		-0.09980885482857492	
0	2.0	43	337	0+4	0	4	4	True	4		0.942	0.02966666666666662	-0.6705055731784915	-0.6267997677629462
0	2.0	44	338	10+1	10	1	11	True	11		0.959	0.16033333333333333	-0.6215063599868319	-0.26218842213475874
0	2.0	45	339	20+9	20	9	29	True	29		0.987	0.09099999999999997	-0.5408017735535102	-0.45565566675379704
0	2.0	46	340	16+9	16	9	25	True	25		1.518	0.4536666666666669	0.9897030620212662	0.5563268435611728
0	2.0	47	341	16+6	16	6	22	True	22		1.15	0.20766666666666656	-0.07098578824524578	-0.13010982244291566
0	2.0	48	342	7+7	7	7	14	True	14		1.036	0.118	-0.3995687472951974	-0.3803150570704215
0	2.0	49	343	13+17	13	17	30	True	30		1.163	0.21266666666666667	-0.033515801686917555	-0.11615785768673469
0	2.0	5	299	1+15	1	15	16	True	16		0.986		-0.5436840802118431	
0	2.0	50	344	16+8	16	8	24	True	24		1.145	0.19733333333333336	-0.08539732153691003	-0.15894388293902192
0	2.0	51	345	1+4	1	4	5	True	5		1.012	0.1236666666666667	-0.4687441070951874	-0.36450283034675
0	2.0	52	346	0+6	0	6	6	True	6		0.932	-0.19266666666666643	-0.6993286397618202	-1.2471971339211112
0	2.0	53	347	4+16	4	16	20	True	20		1.027	0.053333333333333344	-0.425509507220194	-0.5607604679170244
0	2.0	54	348	10+5	10	5	15	True	15		0.899	-0.07033333333333325	-0.7944447594868065	-0.9058390628865587
0	2.0	55	349	7+18	7	18	25	True	25		1.029	-0.03533333333333322	-0.41974489390352815	-0.8081753095932941
0	2.0	56	350	20+8	20	8	28	True	28		1.065	0.028666666666666618	-0.3159818542035432	-0.6295901607141824
0	2.0	57	351	8+1	8	1	9	True	9		0.878	-0.09166666666666679	-0.8549731993117976	-0.9653674458462633
0	2.0	58	352	18+3	18	3	21	True	21		1.0	0.12466666666666659	-0.5033317869951823	-0.3617124373955142
0	2.0	59	353	12+8	12	8	20	True	20		0.993	0.019333333333333425	-0.5235079336035128	-0.6556338282590525
0	2.0	6	300	1+8	1	8	9	True	9		0.948	-0.021666666666666834	-0.6532117332284939	-0.7700399392597345
0	2.0	60	354	12+5	12	5	17	True	17		1.171	0.2843333333333333	-0.010457348420254238	0.08382030381852112
0	2.0	61	355	10+9	10	9	19	True	19		0.908		-0.7685039995618101	
0	2.0	62	356	2+5	2	5	7	True	7		1.077	0.09533333333333316	-0.28139417430354824	-0.44356396396510755
0	2.0	63	357	0+3	0	3	3	True	3		1.01	0.10833333333333328	-0.4745087204118532	-0.40728885559903755
0	2.0	64	358	15+16	15	16	31	True	31		1.135	0.2396666666666667	-0.11422038812023917	-0.04081724800335917
0	2.0	65	359	6+11	6	11	17	True	17		1.28	0.3933333333333333	0.3037140773380332	0.387973135503259
0	2.0	66	360	3+5	3	5	8	True	8		0.971	0.07166666666666666	-0.5869186800868369	-0.5096032638110288
0	2.0	67	361	9+6	9	6	15	True	15		1.07	0.1006666666666668	-0.3015703209118783	-0.4286818682251807
0	2.0	68	362	5+7	5	7	12	True	12		0.863	-0.028000000000000025	-0.8982077991867914	-0.7877124279508962
0	2.0	69	363	5+11	5	11	16	True	16		0.89		-0.8203855194118027	
0	2.0	7	301	15+0	15	0	15	True	15		1.123	0.15366666666666673	-0.14880806802023416	-0.2807910418096661
0	2.0	70	364	15+6	15	6	21	True	21		1.084	0.20866666666666667	-0.2612180276952175	-0.1273194294916792
0	2.0	71	365	12+10	12	10	22	True	22		2.192	1.2496666666666667	2.9323777497376495	2.77747963274513
0	2.0	72	366	15+14	15	14	29	True	29		2.08	1.1840000000000002	2.6095594040043633	2.5942438289472913
0	2.0	73	367	14+8	14	8	22	True	22		2.731	1.7886666666666664	4.485941038579089	4.281501433461402
0	2.0	74	368	2+16	2	16	18	True	18		1.017	0.11749999999999994	-0.4543325738035231	-0.3817102535460397
0	2.0	75	369	9+16	9	16	25	True	25		1.272	0.2076666666666669	0.28065562407136985	-0.13010982244291472
0	2.0	76	370	19+19	19	19	38	True	38		1.199	0.14166666666666683	0.07024723801306737	-0.31427575722449935
0	2.0	77	371	16+11	16	11	27	True	27		2.203	1.289	2.9640831229793108	2.887235088827084
0	2.0	78	372	3+15	3	15	18	True	18		0.924	0.024500000000000077	-0.7223870930284836	-0.6412167980109993
0	2.0	79	373	9+10	9	10	19	True	19		0.972		-0.584036373428504	
0	2.0	8	302	17+8	17	8	25	True	25		1.079	0.014666666666666828	-0.2756295609868824	-0.6686556620314876
0	2.0	80	374	5+5	5	5	10	True	10		0.929	0.12866666666666682	-0.707975559736819	-0.350550865590569
0	2.0	81	375	16+14	16	14	30	True	30		1.172	0.22166666666666657	-0.007575041761921643	-0.09104432112560983
0	2.0	82	376	8+8	8	8	16	True	16		1.025		-0.4312741205368598	
0	2.0	83	377	3+4	3	4	7	True	7		1.177	0.19533333333333325	0.006836491529743251	-0.1645246688414945
0	2.0	84	378	17+1	17	1	18	True	18		0.968	0.0685	-0.5955656000618357	-0.5184395081566098
0	2.0	85	379	19+1	19	1	20	True	20		1.221	0.24733333333333352	0.1336579844963915	-0.019424235377215087
0	2.0	86	380	6+10	6	10	16	True	16		1.089		-0.24680649440355326	
0	2.0	87	381	10+13	10	13	23	True	23		1.051	0.07666666666666655	-0.35633414742020403	-0.49565129905484845
0	2.0	88	382	14+11	14	11	25	True	25		1.97	0.9056666666666668	2.2925056715877425	1.8175844575199023
0	2.0	89	383	4+9	4	9	13	True	13		0.91		-0.7627393862451444	
0	2.0	9	303	13+19	13	19	32	True	32		1.763	0.7523333333333333	1.6958681933128295	1.3897242049970289
0	2.0	90	384	8+4	8	4	12	True	12		0.889	-0.0020000000000000018	-0.8232678260701356	-0.7151622112187569
0	2.0	91	385	6+8	6	8	14	True	14		0.924	0.006000000000000005	-0.7223870930284836	-0.6928390676088678
0	2.0	92	386	10+15	10	15	25	True	25		1.093	0.02866666666666684	-0.2352772677702216	-0.6295901607141817
0	2.0	93	387	1+5	1	5	6	True	6		1.178	0.053333333333333455	0.009718798188075846	-0.560760467917024
0	2.0	94	388	18+9	18	9	27	True	27		1.119	0.20500000000000007	-0.1603372946535658	-0.13755087031287816
0	2.0	95	389	12+20	12	20	32	True	32		1.903	0.8923333333333334	2.0993911254794373	1.780379218170087
0	2.0	96	390	0+19	0	19	19	True	19		0.87		-0.8780316525784609	
0	2.0	97	391	11+14	11	14	25	True	25		1.1	0.03566666666666696	-0.21510112116189087	-0.6100574100555285
0	2.0	98	392	11+19	11	19	30	True	30		1.656	0.7056666666666666	1.387461380871208	1.259505867272676
0	2.0	99	393	7+11	7	11	18	True	18		1.067	0.16749999999999998	-0.31021724088687735	-0.2421906059842332
1	0.0	0	0	1+11	1	11	12	True	12		1.08	0.5983333333333334	-0.317734977049259	-0.28876810339461334
1	0.0	1	1	18+13	18	13	31	False	24		2.379	1.889	1.4824207039526112	1.504831552089837
1	0.0	10	10	5+6	5	6	11	True	11		0.997	0.4656666666666667	-0.43275647167832393	-0.47313087789947167
1	0.0	100	100	6+0	6	0	6	True	6		0.631	0.15566666666666662	-0.9399596889582966	-0.9039283158128341
1	0.0	101	101	4+20	4	20	24	True	24		1.188	0.6316666666666666	-0.16806845391746397	-0.24244579824263904
1	0.0	102	102	5+8	5	8	13	True	13		0.774	0.3376666666666667	-0.7417901259226788	-0.6510085296830534
1	0.0	103	103	9+1	9	1	10	True	10		0.963	0.4159999999999999	-0.4798737104420373	-0.5421511125759136
1	0.0	104	104	19+0	19	0	19	True	19		0.649	0.189	-0.9150152684363307	-0.8576060106608594
1	0.0	105	105	9+15	9	15	24	True	24		2.099	1.5426666666666669	1.094396384722031	1.0235428015608228
1	0.0	106	106	13+17	13	17	30	False	3	0	1.55	1.044	0.333591558802072	0.3305611164872849
1	0.0	107	107	19+4	19	4	23	True	23		1.145	0.6616666666666666	-0.22765790294216012	-0.20075572360586202
1	0.0	108	108	13+8	13	8	21	True	21		1.246	0.7343333333333334	-0.08769198779112944	-0.0997730983745576
1	0.0	109	109	13+5	13	5	18	True	18		0.911	0.4053333333333333	-0.5519353697277164	-0.5569742502245454
1	0.0	11	11	16+11	16	11	27	True	27		4.951	4.4479999999999995	5.0467012363135115	5.060994918606914
1	0.0	110	110	18+12	18	12	30	False	3	Enter	1.849	1.343	0.7479460996947271	0.7460721937004956
1	0.0	111	111	14+2	14	2	16	True	16		1.043	0.5416666666666666	-0.36900961923330017	-0.36751602215296997
1	0.0	112	112	2+4	2	4	6	True	6		1.155	0.6796666666666666	-0.21379989154106796	-0.1757416788237958
1	0.0	113	113	17+3	17	3	20	True	20		0.857	0.3294999999999999	-0.626768631293614	-0.6623574944452874
1	0.0	114	114	15+3	15	3	18	True	18		0.766	0.2603333333333333	-0.7528765350435526	-0.7584762776356343
1	0.0	115	115	5+0	5	0	5	True	5		0.592	0.10799999999999998	-0.994005933422556	-0.9701692121801574
1	0.0	116	116	2+1	2	1	3	True	3		0.876	0.31899999999999995	-0.6004384096315389	-0.6769490205681593
1	0.0	117	117	14+4	14	4	18	True	18		0.88	0.3743333333333333	-0.594895205071102	-0.6000539940158817
1	0.0	118	118	19+6	19	6	25	True	25		1.553	1.079	0.3377489622223995	0.379199536896858
1	0.0	119	119	11+17	11	17	28	True	28		1.941	1.4226666666666667	0.875439804584775	0.8567825030137146
1	0.0	12	12	13+4	13	4	17	True	17		0.776	0.3333333333333333	-0.7390185236424605	-0.6570304293528102
1	0.0	120	120	17+4	17	4	21	True	21		1.695	1.1833333333333336	0.5345327241179082	0.5241883520225383
1	0.0	121	121	7+6	7	6	13	True	13		0.802	0.36566666666666675	-0.7029876939996208	-0.6120977933553948
1	0.0	122	122	19+16	19	16	35	True	35		2.147	1.6409999999999998	1.1609148394472728	1.1601936017591468
1	0.0	123	123	6+6	6	6	12	True	12		0.729	0.24733333333333335	-0.8041511772275935	-0.7765419766449041
1	0.0	124	124	16+12	16	12	28	True	28		1.307	0.7886666666666665	-0.003158118244467411	-0.02426774097683955
1	0.0	125	125	11+3	11	3	14	True	14		1.1	0.6236666666666668	-0.2900189542470747	-0.2535631514791126
1	0.0	126	126	12+15	12	15	27	False	2	7	1.371	0.868	0.08553315472252242	0.08597934528485981
1	0.0	127	127	0+15	0	15	15	True	15		0.84	0.39566666666666667	-0.6503272506754707	-0.570407718718618
1	0.0	128	128	10+8	10	8	18	True	18		0.832	0.32633333333333325	-0.6614136597963445	-0.6667581134347249
1	0.0	129	129	2+20	2	20	22	True	22		1.889	1.3763333333333332	0.8033781452990958	0.7923944988524698
1	0.0	13	13	5+18	5	18	23	True	23		1.33	0.8466666666666667	0.028715307978044714	0.0563330699875962
1	0.0	130	130	18+0	18	0	18	True	18		0.616	0.11033333333333328	-0.9607467060599348	-0.9669266508195192
1	0.0	131	131	5+9	5	9	14	True	14		0.661	0.18466666666666676	-0.8983856547550201	-0.863627910330616
1	0.0	132	132	10+20	10	20	30	False	3	0	2.837	2.3310000000000004	2.117117626122632	2.1190653184050188
1	0.0	133	133	20+9	20	9	29	True	29		0.685	0.20600000000000002	-0.865126427392399	-0.8339816350333527
1	0.0	134	134	15+10	15	10	25	True	25		1.881	1.407	0.792291736178222	0.8350110195922865
1	0.0	135	135	2+8	2	8	10	False	1	0	0.763	0.21599999999999997	-0.7570339384638802	-0.8200849434877603
1	0.0	136	136	16+6	16	6	22	True	22		1.065	0.5523333333333332	-0.3385219941508974	-0.3526928845043383
1	0.0	137	137	17+20	17	20	37	False	30		5.397	4.878666666666667	5.664768544802222	5.659479101170424
1	0.0	138	138	17+8	17	8	25	False	1		0.854	0.38	-0.6309260347139417	-0.5921792021400459
1	0.0	139	139	17+15	17	15	32	True	32		2.436	1.898	1.5614113689388363	1.5173385744808698
1	0.0	14	14	18+3	18	3	21	True	21		1.183	0.6713333333333334	-0.17499745961800992	-0.1873222551117892
1	0.0	140	140	6+19	6	19	25	True	25		1.686	1.212	0.5220605138569251	0.564025534453236
1	0.0	141	141	20+16	20	16	36	True	36		2.26	1.744333333333333	1.317510368279614	1.3037927477302675
1	0.0	142	142	15+5	15	5	20	True	20		1.787	1.2594999999999998	0.6620264290079557	0.6300348192947994
1	0.0	143	143	4+12	4	12	16	True	16		0.86	0.3586666666666667	-0.6226112278732864	-0.6218254774373095
1	0.0	144	144	2+3	2	3	5	True	5		0.961	0.477	-0.48264531272225575	-0.4573812941478004
1	0.0	145	145	2+9	2	9	11	True	11		0.796	0.2646666666666667	-0.7113025008402761	-0.7524543779658774
1	0.0	146	146	8+11	8	11	19	False	1	9	1.027	0.567	-0.3911824374750476	-0.3323110702374694
1	0.0	15	15	3+1	3	1	4	True	4		0.844	0.33899999999999997	-0.6447840461150338	-0.6491556374769746
1	0.0	16	16	0+13	0	13	13	True	13		0.834	0.39766666666666667	-0.658642057516126	-0.5676283804094995
1	0.0	17	17	20+17	20	17	37	True	37		1.8	1.2816666666666667	0.6800418438293757	0.6608391522208628
1	0.0	18	18	7+2	7	2	9	True	9		0.846	0.22999999999999998	-0.6420124438348155	-0.800629575323931
1	0.0	19	19	8+9	8	9	17	True	17		1.071	0.6283333333333332	-0.3302071873102421	-0.2470780287578366
1	0.0	2	2	1+14	1	14	15	True	15		1.093	0.6486666666666667	-0.29971956222783935	-0.2188214226151319
1	0.0	20	20	2+19	2	19	21	True	21		1.949	1.4373333333333336	0.8865262137056488	0.8771643172805836
1	0.0	21	21	8+20	8	20	28	True	28		1.08	0.5616666666666666	-0.317734977049259	-0.3397226390617853
1	0.0	22	22	12+8	12	8	20	False	2	0	1.42	0.8924999999999998	0.15343741058787386	0.12002623957156083
1	0.0	23	23	12+13	12	13	25	False	2	5	1.638	1.164	0.45554205913168266	0.49732141503439276
1	0.0	24	24	14+0	14	0	14	True	14		0.723	0.2466666666666667	-0.8124659840682489	-0.7774684227479437
1	0.0	25	25	16+4	16	4	20	True	20		1.459	0.9315	0.20748365505213345	0.17422333659937111
1	0.0	26	26	10+2	10	2	12	True	12		0.851	0.36933333333333335	-0.6350834381342694	-0.6070023397886778
1	0.0	27	27	4+2	4	2	6	True	6		1.135	0.6596666666666666	-0.24151591434325229	-0.2035350619149805
1	0.0	28	28	4+9	4	9	13	True	13		0.887	0.4506666666666667	-0.5851945970903376	-0.4939759152178601
1	0.0	29	29	19+13	19	13	32	True	32		2.285	1.747	1.352155396782345	1.307498532142426
1	0.0	3	3	12+5	12	5	17	False	1	7	0.88	0.4373333333333333	-0.594895205071102	-0.51250483727865
1	0.0	30	30	2+12	2	12	14	True	14		1.85	1.3736666666666668	0.7493319008348365	0.7886887144403123
1	0.0	31	31	13+18	13	18	31	True	31		2.489	1.9989999999999999	1.6348588293646245	1.6576951590913525
1	0.0	32	32	19+5	19	5	24	True	24		1.528	0.9716666666666667	0.3031039337196692	0.23004171430750037
1	0.0	33	33	3+10	3	10	13	True	13		1.135	0.6986666666666668	-0.24151591434325229	-0.1493379648871702
1	0.0	34	34	11+5	11	5	16	True	16		1.105	0.6036666666666667	-0.28308994854652875	-0.28135653457029747
1	0.0	35	35	3+3	3	3	6	True	6		2.325	1.8496666666666668	1.4075874423867136	1.4501712320105073
1	0.0	36	36	20+3	20	3	23	True	23		0.71	0.22666666666666663	-0.8304813988896687	-0.8052618058391285
1	0.0	37	37	16+17	16	17	33	True	33		1.632	1.0746666666666664	0.4472272522910274	0.373177637227101
1	0.0	38	38	9+13	9	13	22	False	2		1.066	0.5533333333333333	-0.33713619301078807	-0.3513032153497789
1	0.0	39	39	7+4	7	4	11	False	2		0.02	-0.5113333333333333	-1.7866841855650268	-1.8308376419038426
1	0.0	4	4	6+20	6	20	26	True	26		1.164	0.6823333333333332	-0.20132768128008516	-0.17203589441163794
1	0.0	40	40	3+6	3	6	9	True	9		1.009	0.3929999999999999	-0.4161268579970135	-0.574113503130776
1	0.0	41	41	17+13	17	13	30	False	3	ArrowRight	1.693	1.187	0.5317611218376898	0.5292838055892553
1	0.0	42	42	9+12	9	12	21	True	21		2.351	1.8393333333333333	1.443618272029553	1.4358113174133948
1	0.0	43	43	8+14	8	14	22	True	22		1.541	1.0283333333333333	0.32111934854108887	0.3087896330658569
1	0.0	44	44	13+14	13	14	27	False	2	7	1.453	0.9500000000000001	0.19916884821147815	0.19993221595871705
1	0.0	45	45	9+2	9	2	11	True	11		0.911	0.3796666666666667	-0.5519353697277164	-0.5926424251915656
1	0.0	46	46	8+17	8	17	25	True	25		1.311	0.837	0.0023850863159694535	0.04289960149352355
1	0.0	47	47	8+3	8	3	11	True	11		1.063	0.5316666666666666	-0.34129359643111584	-0.38141271369856233
1	0.0	48	48	19+11	19	11	30	False	3	0	3.639	3.133	3.2285301404902214	3.2335799803615233
1	0.0	49	49	3+11	3	11	14	True	14		2.168	1.6916666666666669	1.190016663389567	1.2306035055901485
1	0.0	5	5	3+13	3	13	16	True	16		1.362	0.8606666666666668	0.07306094446153963	0.07578843815142564
1	0.0	50	50	7+15	7	15	22	True	22		1.359	0.8463333333333333	0.06890354104121182	0.055869846936076356
1	0.0	51	51	0+8	0	8	8	True	8		0.941	0.41533333333333333	-0.5103613355244401	-0.543077558678953
1	0.0	52	52	3+18	3	18	21	True	21		1.072	0.5603333333333335	-0.32882138617013273	-0.34157553126786405
1	0.0	53	53	9+6	9	6	15	True	15		0.748	0.3036666666666667	-0.7778209555655184	-0.6982572809380674
1	0.0	54	54	14+6	14	6	20	True	20		1.106	0.5785	-0.2817041474064194	-0.31632987496003817
1	0.0	55	55	15+11	15	11	26	True	26		2.078	1.5963333333333332	1.065294560779737	1.0981217128555012
1	0.0	56	56	14+10	14	10	24	False	2	4	1.551	0.9946666666666666	0.33497735994218103	0.2620041048623626
1	0.0	57	57	14+1	14	1	15	True	15		0.974	0.5296666666666667	-0.4646298979008359	-0.38419205200768064
1	0.0	58	58	4+16	4	16	20	True	20		1.248	0.7204999999999999	-0.08492038551091101	-0.11899685501262719
1	0.0	59	59	2+15	2	15	17	True	17		1.054	0.6113333333333333	-0.3537658066920986	-0.27070240438534343
1	0.0	6	6	3+14	3	14	17	True	17		1.033	0.5903333333333332	-0.38286763063439233	-0.2998854566310875
1	0.0	60	60	15+15	15	15	30	False	3	0	2.737	2.231	1.9785375121117101	1.9800984029490944
1	0.0	61	61	6+14	6	14	20	True	20		1.729	1.2015	0.5816499628816215	0.5494340083303642
1	0.0	62	62	5+19	5	19	24	True	24		2.496	1.9396666666666667	1.6445594373453891	1.575241455920838
1	0.0	63	63	10+6	10	6	16	True	16		0.804	0.30266666666666675	-0.7002160917194024	-0.6996469500926266
1	0.0	64	64	19+2	19	2	21	True	21		0.993	0.4813333333333334	-0.4382996762387608	-0.4513593944780436
1	0.0	65	65	16+7	16	7	23	True	23		2.095	1.6116666666666668	1.0888531801615944	1.1194299732254098
1	0.0	66	66	4+17	4	17	21	True	21		2.542	2.030333333333333	1.7083062897904129	1.7012381259342082
1	0.0	67	67	10+9	10	9	19	True	19		0.879	0.419	-0.5962810062112113	-0.5379821051122359
1	0.0	68	68	13+20	13	20	33	True	33		3.033	2.4756666666666667	2.3887346495840376	2.320104122764587
1	0.0	69	69	1+1	1	1	2	True	2		0.799	0.29200000000000004	-0.7071450974199485	-0.7144700877412584
1	0.0	7	7	10+5	10	5	15	True	15		0.773	0.3286666666666667	-0.743175927062788	-0.6635155520740865
1	0.0	70	70	18+19	18	19	37	False	3	7	1.686	1.1676666666666666	0.5220605138569251	0.50241686860111
1	0.0	71	71	1+4	1	4	5	True	5		0.826	0.34199999999999997	-0.6697284666369998	-0.6449866300132969
1	0.0	72	72	19+12	19	12	31	False	21		1.311	0.821	0.0023850863159694535	0.0206648950205758
1	0.0	73	73	20+15	20	15	35	True	35		1.79	1.284	0.6661838324282835	0.6640817135815009
1	0.0	74	74	12+3	12	3	15	True	15		2.322	1.8776666666666668	1.4034300389663859	1.4890819683381658
1	0.0	75	75	5+11	5	11	16	True	16		1.366	0.8646666666666668	0.07860414902197649	0.08134711476966258
1	0.0	76	76	1+17	1	17	18	True	18		0.963	0.45733333333333326	-0.4798737104420373	-0.48471145418746536
1	0.0	77	77	17+11	17	11	28	True	28		2.843	2.3246666666666664	2.1254324329632865	2.1102640804261426
1	0.0	78	78	4+3	4	3	7	True	7		0.846	0.2853333333333333	-0.6420124438348155	-0.7237345487716534
1	0.0	79	79	6+4	6	4	10	False	1	0	0.888	0.34099999999999997	-0.5838087959502284	-0.6463762991678561
1	0.0	8	8	1+3	1	3	4	True	4		1.018	0.513	-0.40365464773603044	-0.40735320458366797
1	0.0	80	80	14+16	14	16	30	True	30		1.69	1.184	0.5276037184173619	0.5251147981255775
1	0.0	81	81	3+9	3	9	12	True	12		1.444	0.9623333333333333	0.18669663795049504	0.2170714688649474
1	0.0	82	82	0+10	0	10	10	False	1	0	0.872	0.32499999999999996	-0.6059816141919758	-0.6686110056408039
1	0.0	83	83	14+17	14	17	31	False	21		1.482	0.992	0.23935708127464525	0.25829832045020473
1	0.0	84	84	14+9	14	9	23	True	23		3.189	2.7056666666666667	2.6049196274410753	2.6397280283132107
1	0.0	85	85	5+20	5	20	25	True	25		0.89	0.41600000000000004	-0.5810371936700099	-0.5421511125759135
1	0.0	86	86	20+7	20	7	27	False	2	7	0.693	0.18999999999999995	-0.8540400182715253	-0.8562163415063003
1	0.0	87	87	15+14	15	14	29	False	2	9	1.797	1.3179999999999998	0.6758844404090478	0.7113304648365145
1	0.0	88	88	14+20	14	20	34	True	34		2.282	1.7560000000000002	1.3479979933620172	1.3200055545334592
1	0.0	89	89	17+6	17	6	23	True	23		1.699	1.2156666666666667	0.540075928678345	0.5691209880199533
1	0.0	9	9	2+6	2	6	8	True	8		0.857	0.33133333333333337	-0.626768631293614	-0.6598097676619286
1	0.0	90	90	8+2	8	2	10	False	1	0	3.22	2.673	2.647879462784461	2.594332169264276
1	0.0	91	91	5+15	5	15	20	True	20		2.286	1.7585	1.353541197922454	1.3234797274198569
1	0.0	92	92	4+13	4	13	17	True	17		1.511	1.0683333333333331	0.2795453143378124	0.36437639924822596
1	0.0	93	93	2+10	2	10	12	True	12		1.241	0.7593333333333334	-0.09462099349167537	-0.06503136951057674
1	0.0	94	94	1+19	1	19	20	False	2	0	1.105	0.5774999999999999	-0.28308994854652875	-0.3177195441145976
1	0.0	95	95	9+5	9	5	14	True	14		0.671	0.19466666666666677	-0.884527643353928	-0.8497312187850238
1	0.0	96	96	10+3	10	3	13	True	13		0.658	0.22166666666666673	-0.9025430581753477	-0.8122101516119246
1	0.0	97	97	19+7	19	7	26	False	2	6	1.02	0.5383333333333333	-0.400883045455812	-0.37214825266816737
1	0.0	98	98	5+17	5	17	22	False	23		1.376	0.8633333333333332	0.09246216042306835	0.07949422256358318
1	0.0	99	99	3+20	3	20	23	True	23		1.114	0.6306666666666667	-0.27061773828554564	-0.24383546739719814
1	1.0	0	147	9+0	9	0	9	True	9		0.957	0.34099999999999997	-0.4881885172826926	-0.6463762991678561
1	1.0	1	148	1+15	1	15	16	True	16		0.829	0.32766666666666666	-0.6655710632166721	-0.6649052212286458
1	1.0	10	157	7+19	7	19	26	True	26		2.112	1.6303333333333334	1.1124117995434508	1.1453704641105154
1	1.0	100	247	20+5	20	5	25	True	25		0.683	0.20900000000000007	-0.8678980296726173	-0.8298126275696748
1	1.0	101	248	19+15	19	15	34	True	34		1.73	1.2040000000000002	0.5830357640217305	0.5529081812167624
1	1.0	102	249	9+14	9	14	23	True	23		1.255	0.7716666666666665	-0.07521977753014665	-0.04789211660434654
1	1.0	103	250	19+8	19	8	27	True	27		2.164	1.661	1.1844734588291301	1.1879869848503317
1	1.0	104	251	15+9	15	9	24	True	24		2.192	1.6356666666666668	1.2232758907521881	1.1527820329348315
1	1.0	105	252	9+4	9	4	13	True	13		0.723	0.2866666666666667	-0.8124659840682489	-0.7218816565655745
1	1.0	106	253	16+0	16	0	16	True	16		0.623	0.1216666666666667	-0.9510460980791703	-0.9511770670678479
1	1.0	107	254	19+3	19	3	22	True	22		2.665	2.1523333333333334	1.8787598300238466	1.8707777627904352
1	1.0	108	255	5+12	5	12	17	True	17		1.239	0.7963333333333333	-0.0973925957718938	-0.013613610791885214
1	1.0	109	256	3+2	3	2	5	True	5		0.726	0.242	-0.8083085806479212	-0.7839535454692201
1	1.0	11	158	10+1	10	1	11	False	1	3	0.628	0.09666666666666668	-0.9441170923786243	-0.9859187959318287
1	1.0	110	257	16+13	16	13	29	True	29		1.416	0.9369999999999998	0.147894206027437	0.1818665169494467
1	1.0	111	258	20+6	20	6	26	True	26		0.719	0.23733333333333329	-0.8180091886286858	-0.7904386681904967
1	1.0	112	259	19+14	19	14	33	True	33		3.031	2.473666666666667	2.3859630473038194	2.3173247844554687
1	1.0	113	260	0+9	0	9	9	True	9		0.712	0.09599999999999997	-0.8277097966094502	-0.9868452420348682
1	1.0	114	261	3+15	3	15	18	True	18		1.412	0.9063333333333332	0.14235100146700014	0.13924999620963027
1	1.0	115	262	12+0	12	0	12	True	12		0.669	0.1873333333333334	-0.8872992456341464	-0.8599221259184582
1	1.0	116	263	9+11	9	11	20	True	20		2.071	1.5435	1.055593952798973	1.024700859189622
1	1.0	117	264	11+11	11	11	22	True	22		1.522	1.0093333333333332	0.29478912687901393	0.2823859191292313
1	1.0	118	265	2+2	2	2	4	True	4		0.757	0.252	-0.7653487453045356	-0.7700568539236279
1	1.0	119	266	10+15	10	15	25	True	25		1.239	0.7650000000000001	-0.0973925957718938	-0.057156577634741024
1	1.0	12	159	13+11	13	11	24	True	24		2.154	1.5976666666666666	1.1706154474280377	1.0999746050615802
1	1.0	120	267	14+19	14	19	33	False	3		1.902	1.3446666666666665	0.8213935601205155	0.748388308958094
1	1.0	121	268	18+18	18	18	36	False	3	6	3.016	2.5003333333333333	2.365176030202181	2.354382628577048
1	1.0	122	269	5+2	5	2	7	True	7		1.481	0.9203333333333334	0.2379712801345362	0.15870536437345986
1	1.0	123	270	4+1	4	1	5	True	5		1.02	0.536	-0.400883045455812	-0.37539081402880553
1	1.0	124	271	9+3	9	3	12	True	12		0.739	0.25733333333333336	-0.7902931658265014	-0.7626452850993118
1	1.0	125	272	8+7	8	7	15	True	15		0.765	0.3206666666666667	-0.7542623361836618	-0.6746329053105604
1	1.0	126	273	0+16	0	16	16	True	16		0.726	0.22466666666666668	-0.8083085806479212	-0.8080411441482469
1	1.0	127	274	0+2	0	2	2	True	2		0.695	0.18799999999999994	-0.8512684159913069	-0.8589956798154188
1	1.0	128	275	18+6	18	6	24	True	24		0.903	0.3466666666666667	-0.5630217788485902	-0.6385015072920204
1	1.0	129	276	0+14	0	14	14	True	14		1.046	0.5696666666666668	-0.36485221581297234	-0.3286052858253113
1	1.0	13	160	1+9	1	9	10	False	1	0	0.837	0.2899999999999999	-0.6544846540957984	-0.7172494260503771
1	1.0	130	277	20+13	20	13	33	True	33		1.642	1.0846666666666667	0.46108526369211955	0.3870743287726937
1	1.0	131	278	0+17	0	17	17	True	17		0.715	0.27233333333333326	-0.8235523931891225	-0.7418002477809235
1	1.0	132	279	6+5	6	5	11	True	11		0.764	0.2326666666666667	-0.755648137323771	-0.796923790911773
1	1.0	133	280	12+14	12	14	26	True	26		1.417	0.9353333333333333	0.14928000716754636	0.17955040169184822
1	1.0	134	281	18+20	18	20	38	False	30		1.489	1.0013333333333334	0.24905768925540991	0.2712685658927577
1	1.0	135	282	13+19	13	19	32	False	3	2	2.86	2.322	2.1489910523451434	2.106558296013985
1	1.0	136	283	13+12	13	12	25	True	25		1.966	1.492	0.9100848330875052	0.9531328977298213
1	1.0	137	284	3+5	3	5	8	True	8		0.759	0.2333333333333334	-0.7625771430243171	-0.7959973448087334
1	1.0	138	285	18+14	18	14	32	True	32		2.292	1.7539999999999998	1.3618560047631092	1.3172262162243402
1	1.0	139	286	17+0	17	0	17	True	17		0.671	0.22833333333333333	-0.884527643353928	-0.8029456905815298
1	1.0	14	161	13+9	13	9	22	True	22		1.322	0.8093333333333333	0.017628898857170984	0.004452088217384834
1	1.0	140	287	1+7	1	7	8	True	8		1.45	0.9243333333333333	0.19501144479115035	0.16426404099169664
1	1.0	141	288	12+4	12	4	16	True	16		0.874	0.3726666666666667	-0.6032100119117574	-0.6023701092734803
1	1.0	142	289	5+7	5	7	12	True	12		0.687	0.20533333333333342	-0.8623548251121805	-0.834908081136392
1	1.0	143	290	9+17	9	17	26	False	23		1.438	0.9563333333333333	0.17838183110983974	0.208733453937592
1	1.0	144	291	7+5	7	5	12	True	12		0.8	0.3183333333333334	-0.7057592962798392	-0.6778754666711986
1	1.0	145	292	0+20	0	20	20	True	20		0.64	0.11249999999999993	-0.9274874786973136	-0.963915700984641
1	1.0	146	293	13+2	13	2	15	True	15		0.914	0.46966666666666673	-0.5477779663073887	-0.46757220128123467
1	1.0	15	162	10+19	10	19	29	True	29		3.104	2.625	2.487126530531792	2.5276280498454327
1	1.0	16	163	18+10	18	10	28	True	28		1.395	0.8766666666666666	0.1187923820851436	0.09802314462437309
1	1.0	17	164	0+4	0	4	4	True	4		0.712	0.20699999999999996	-0.8277097966094502	-0.8325919658787934
1	1.0	18	165	20+11	20	11	31	True	31		1.804	1.314	0.6855850483898126	0.7057717882182779
1	1.0	19	166	20+12	20	12	32	True	32		1.904	1.3659999999999999	0.8241651624007339	0.7780345842553578
1	1.0	2	149	16+18	16	18	34	False	3	4	2.212	1.6860000000000004	1.2509919135543723	1.222728713714313
1	1.0	20	167	9+9	9	9	18	True	18		0.77	0.2643333333333333	-0.7473333304831157	-0.7529176010173974
1	1.0	21	168	20+0	20	0	20	True	20		0.683	0.15549999999999997	-0.8678980296726173	-0.9041599273385938
1	1.0	22	169	4+18	4	18	22	True	22		1.359	0.8463333333333333	0.06890354104121182	0.055869846936076356
1	1.0	23	170	8+19	8	19	27	True	27		1.753	1.25	0.6149091902442424	0.6168329623264869
1	1.0	24	171	12+1	12	1	13	True	13		0.787	0.35066666666666674	-0.723774711101259	-0.6329428306737834
1	1.0	25	172	3+4	3	4	7	True	7		0.899	0.3383333333333334	-0.568564983409027	-0.650082083580014
1	1.0	26	173	7+9	7	9	16	True	16		0.778	0.2766666666666667	-0.736246921362242	-0.7357783481111667
1	1.0	27	174	7+20	7	20	27	True	27		1.195	0.6920000000000001	-0.1583678459366993	-0.15860242591756513
1	1.0	28	175	15+6	15	6	21	True	21		0.982	0.4703333333333334	-0.4535434887799622	-0.4666457551781952
1	1.0	29	176	7+3	7	3	10	True	10		0.673	0.126	-0.8817560410737095	-0.9451551673980912
1	1.0	3	150	0+6	0	6	6	True	6		0.664	0.18866666666666665	-0.8942282513346924	-0.8580692337123793
1	1.0	30	177	15+20	15	20	35	True	35		3.223	2.7169999999999996	2.652036866204788	2.6554776120648813
1	1.0	31	178	5+1	5	1	6	True	6		0.727	0.2516666666666666	-0.806922779507812	-0.7705200769751477
1	1.0	32	179	11+10	11	10	21	True	21		2.574	2.062333333333333	1.7526519262739078	1.7457075388801038
1	1.0	33	180	15+1	15	1	16	True	16		0.82	0.31866666666666665	-0.678043273477655	-0.677412243619679
1	1.0	34	181	14+12	14	12	26	True	26		1.675	1.1933333333333334	0.5068167013157239	0.5380850435681304
1	1.0	35	182	1+8	1	8	9	True	9		0.86	0.244	-0.6226112278732864	-0.7811742071601017
1	1.0	36	183	10+7	10	7	17	True	17		0.836	0.39333333333333326	-0.6558704552359076	-0.5736502800792563
1	1.0	37	184	15+16	15	16	31	True	31		3.14	2.6500000000000004	2.5370153715757238	2.5623697787094137
1	1.0	38	185	17+1	17	1	18	True	18		0.778	0.2723333333333333	-0.736246921362242	-0.7418002477809235
1	1.0	39	186	6+3	6	3	9	True	9		0.904	0.28800000000000003	-0.561635977708481	-0.7200287643594954
1	1.0	4	151	15+8	15	8	23	True	23		0.879	0.39566666666666667	-0.5962810062112113	-0.570407718718618
1	1.0	40	187	12+16	12	16	28	True	28		2.133	1.6146666666666665	1.1415136234857441	1.123598980689087
1	1.0	41	188	4+7	4	7	11	True	11		0.833	0.30166666666666664	-0.6600278586562353	-0.701036619247186
1	1.0	42	189	18+16	18	16	34	True	34		2.035	1.5090000000000003	1.0057051117550413	0.9767572733573288
1	1.0	43	190	6+10	6	10	16	True	16		0.823	0.32166666666666666	-0.6738858700573274	-0.6732432361560012
1	1.0	44	191	18+17	18	17	35	True	35		3.125	2.6189999999999998	2.5162283544740855	2.5192900349180767
1	1.0	45	192	8+15	8	15	23	True	23		1.025	0.5416666666666665	-0.39395403975526605	-0.36751602215297013
1	1.0	46	193	4+5	4	5	9	True	9		0.726	0.10999999999999999	-0.8083085806479212	-0.9673898738710389
1	1.0	47	194	17+14	17	14	31	True	31		1.964	1.474	0.9073132308072869	0.9281188529477551
1	1.0	48	195	11+8	11	8	19	True	19		0.983	0.5229999999999999	-0.452157687639853	-0.3934565130380758
1	1.0	49	196	8+12	8	12	20	True	20		0.99	0.4624999999999999	-0.4424570796590885	-0.47753149688890933
1	1.0	5	152	7+8	7	8	15	True	15		0.766	0.3216666666666667	-0.7528765350435526	-0.6732432361560012
1	1.0	50	197	9+20	9	20	29	True	29		1.018	0.5389999999999999	-0.40365464773603044	-0.371221806565128
1	1.0	51	198	5+13	5	13	18	True	18		0.744	0.23833333333333329	-0.7833641601259553	-0.7890489990359374
1	1.0	52	199	18+5	18	5	23	False	1		0.772	0.2886666666666667	-0.7445617282028972	-0.719102318256456
1	1.0	53	200	11+18	11	18	29	False	2	9	5.283	4.804	5.506787214829772	5.555717137630002
1	1.0	54	201	11+12	11	12	23	True	23		3.417	2.9336666666666664	2.9208822873859757	2.9565725955527156
1	1.0	55	202	13+15	13	15	28	True	28		1.786	1.2676666666666665	0.6606406278678466	0.6413837840570331
1	1.0	56	203	8+16	8	16	24	True	24		1.5	0.9436666666666667	0.26430150179661116	0.1911309779798418
1	1.0	57	204	17+12	17	12	29	True	29		1.514	1.035	0.28370271775814015	0.3180540940962517
1	1.0	58	205	12+2	12	2	14	True	14		1.258	0.7816666666666667	-0.07106237410981885	-0.03399542505875388
1	1.0	59	206	16+5	16	5	21	True	21		1.053	0.5413333333333333	-0.355151607832208	-0.3679792452044897
1	1.0	6	153	13+0	13	0	13	True	13		0.582	0.14566666666666667	-1.0078639448236482	-0.9178250073584264
1	1.0	60	207	7+7	7	7	14	True	14		0.818	0.3416666666666667	-0.6808148757578735	-0.6454498530648166
1	1.0	61	208	19+9	19	9	28	False	2	8	2.508	1.9896666666666665	1.6611890510266998	1.6447249136487996
1	1.0	62	209	15+4	15	4	19	True	19		1.119	0.659	-0.26368873258499975	-0.20446150801801988
1	1.0	63	210	6+16	6	16	22	False			-1.0	-1.5126666666666666	-3.2002013484764262	-3.2223596886691546
1	1.0	64	211	19+20	19	20	39	True	39		2.701	2.1035000000000004	1.9286486710677784	1.802915585742793
1	1.0	65	212	14+15	14	15	29	True	29		1.034	0.5549999999999999	-0.38148182949428294	-0.34898710009218026
1	1.0	66	213	17+16	17	16	33	True	33		1.897	1.3396666666666666	0.8144645544199695	0.741439963185298
1	1.0	67	214	11+16	11	16	27	True	27		2.504	2.001	1.655645846466263	1.6604744974004708
1	1.0	68	215	17+17	17	17	34	True	34		1.685	1.1590000000000003	0.520674712716816	0.490373069261597
1	1.0	69	216	8+8	8	8	16	True	16		0.714	0.21266666666666667	-0.8249381943292318	-0.8247171740029576
1	1.0	7	154	7+11	7	11	18	True	18		1.518	1.0123333333333333	0.28924592231857704	0.2865549265929091
1	1.0	70	217	7+13	7	13	20	True	20		1.197	0.6695	-0.15559624365648086	-0.18986998189514798
1	1.0	71	218	9+19	9	19	28	True	28		1.998	1.4796666666666667	0.9544304695710002	0.9359936448235908
1	1.0	72	219	3+0	3	0	3	True	3		0.708	0.1509999999999999	-0.8332530011698871	-0.9104134385341105
1	1.0	73	220	2+7	2	7	9	True	9		0.863	0.247	-0.6184538244529587	-0.777005199696424
1	1.0	74	221	19+19	19	19	38	True	38		2.382	1.8943333333333334	1.486578107372939	1.512243120914153
1	1.0	75	222	20+4	20	4	24	False	214		0.862	0.30566666666666664	-0.6198396255930679	-0.695477942628949
1	1.0	76	223	20+19	20	19	39	True	39		1.638	1.0405	0.45554205913168266	0.3256972744463275
1	1.0	77	224	4+19	4	19	23	True	23		1.013	0.5296666666666665	-0.41058365343657666	-0.384192052007681
1	1.0	78	225	1+16	1	16	17	True	17		0.897	0.4543333333333333	-0.5713365856892454	-0.488880461651143
1	1.0	79	226	5+3	5	3	8	True	8		0.719	0.19333333333333336	-0.8180091886286858	-0.8515841109911028
1	1.0	8	155	1+10	1	10	11	False	1	1	0.745	0.21366666666666667	-0.7819783589858461	-0.8233275048483985
1	1.0	80	227	6+1	6	1	7	True	7		0.805	0.2443333333333334	-0.6988302905792931	-0.7807109841085819
1	1.0	81	228	16+8	16	8	24	True	24		0.939	0.3826666666666666	-0.5131329378046585	-0.5884734177278881
1	1.0	82	229	12+10	12	10	22	True	22		2.397	1.8843333333333332	1.5073651244745767	1.4983464293685602
1	1.0	83	230	11+2	11	2	13	True	13		1.609	1.1726666666666667	0.41535382606851556	0.5093652143739064
1	1.0	84	231	2+0	2	0	2	True	2		0.694	0.18699999999999994	-0.8526542171314161	-0.8603853489699781
1	1.0	85	232	8+1	8	1	9	True	9		0.727	0.11099999999999999	-0.806922779507812	-0.9660002047164797
1	1.0	86	233	11+13	11	13	24	True	24		1.58	1.0236666666666667	0.37516559300534846	0.30230451034458056
1	1.0	87	234	15+2	15	2	17	True	17		0.756	0.3133333333333333	-0.7667345464446448	-0.6848238124439949
1	1.0	88	235	0+0	0	0	0	True	0		1.018	0.22166666666666657	-0.40365464773603044	-0.8122101516119247
1	1.0	89	236	18+9	18	9	27	True	27		1.093	0.59	-0.29971956222783935	-0.30034867968260703
1	1.0	9	156	2+13	2	13	15	True	15		1.662	1.2176666666666667	0.4888012864943039	0.5719003263290717
1	1.0	90	237	8+6	8	6	14	True	14		0.646	0.16966666666666674	-0.9191726718566584	-0.8844729476490046
1	1.0	91	238	13+7	13	7	20	True	20		1.183	0.6555	-0.17499745961800992	-0.20932535005897726
1	1.0	92	239	13+10	13	10	23	True	23		1.517	1.0336666666666665	0.28786012117846765	0.3162012018901726
1	1.0	93	240	13+16	13	16	29	True	29		1.298	0.819	-0.0156303285054502	0.01788555671145733
1	1.0	94	241	18+1	18	1	19	True	19		0.953	0.49299999999999994	-0.49373172184312947	-0.4351465876748527
1	1.0	95	242	12+18	12	18	30	True	30		1.809	1.303	0.6925140540903585	0.6904854275181261
1	1.0	96	243	14+3	14	3	17	True	17		0.858	0.4153333333333333	-0.6253828301535048	-0.5430775586789531
1	1.0	97	244	5+16	5	16	21	True	21		0.925	0.41333333333333344	-0.5325341537661874	-0.5458568969880714
1	1.0	98	245	3+8	3	8	11	True	11		0.83	0.29866666666666664	-0.6641852620765629	-0.7052056267108636
1	1.0	99	246	12+20	12	20	32	False	3	2	3.22	2.6820000000000004	2.647879462784461	2.6068391916553093
1	2.0	0	294	3+19	3	19	22	True	22		1.411	0.8983333333333333	0.14096520032689105	0.12813264297315655
1	2.0	1	295	8+18	8	18	26	True	26		2.02	1.5383333333333333	0.984918094653403	1.0175209018910658
1	2.0	10	304	12+17	12	17	29	True	29		1.06	0.581	-0.34545099985144334	-0.31285570207364016
1	2.0	100	394	14+14	14	14	28	True	28		1.486	0.9676666666666666	0.24490028583508214	0.22448303768926325
1	2.0	101	395	2+5	2	5	7	True	7		1.016	0.45533333333333337	-0.4064262500162488	-0.48749079249658367
1	2.0	102	396	15+12	15	12	27	True	27		1.712	1.209	0.5580913434997646	0.5598565269895585
1	2.0	103	397	11+19	11	19	30	False			-1.0	-1.506	-3.2002013484764262	-3.2130952276387594
1	2.0	104	398	8+4	8	4	12	True	12		1.032	0.5503333333333333	-0.3842534317745014	-0.3554722228134566
1	2.0	105	399	17+10	17	10	27	True	27		1.432	0.9289999999999999	0.17006702426918446	0.17074916371297297
1	2.0	106	400	17+18	17	18	35	True	35		1.888	1.382	0.8019923441589863	0.8002692907283055
1	2.0	107	401	18+15	18	15	33	True	33		2.019	1.461666666666667	0.9835322935132939	0.9109796000415249
1	2.0	108	402	7+17	7	17	24	True	24		2.32	1.7636666666666665	1.4006584366861672	1.330659684718413
1	2.0	109	403	7+16	7	16	23	True	23		2.248	1.7646666666666668	1.300880754598304	1.3320493538729725
1	2.0	11	305	11+6	11	6	17	True	17		1.207	0.7643333333333333	-0.14173823225538873	-0.058083023737780716
1	2.0	110	404	4+14	4	14	18	True	18		1.235	0.7293333333333334	-0.10293580033233067	-0.10672144414735377
1	2.0	111	405	6+11	6	11	17	True	17		1.389	0.9463333333333332	0.11047757524448831	0.19483676239199965
1	2.0	112	406	2+18	2	18	20	True	20		0.94	0.41249999999999987	-0.5117471366645493	-0.5470149546168711
1	2.0	113	407	20+8	20	8	28	True	28		0.677	0.15866666666666662	-0.8762128365132726	-0.8997593083491563
1	2.0	114	408	20+18	20	18	38	True	38		1.777	1.2893333333333332	0.6481684176068636	0.6714932824058166
1	2.0	115	409	16+16	16	16	32	True	32		1.593	1.055	0.39318100782676807	0.34584747718743636
1	2.0	116	410	6+18	6	18	24	True	24		1.145	0.5886666666666667	-0.22765790294216012	-0.30220157188868596
1	2.0	117	411	6+17	6	17	23	True	23		1.576	1.0926666666666667	0.3696223884449116	0.39819168200916755
1	2.0	118	412	4+8	4	8	12	True	12		0.732	0.25033333333333335	-0.7999937738072659	-0.7723729691812266
1	2.0	119	413	15+17	15	17	32	False	35		1.493	0.9550000000000001	0.2546008938158468	0.2068805617315132
1	2.0	12	306	14+7	14	7	21	True	21		1.124	0.6123333333333335	-0.2567597268844535	-0.26931273523078386
1	2.0	120	414	12+11	12	11	23	True	23		2.754	2.2706666666666666	2.0020961314935666	2.035221946079944
1	2.0	121	415	0+5	0	5	5	True	5		0.649	0.16500000000000004	-0.9150152684363307	-0.8909580703702811
1	2.0	122	416	12+6	12	6	18	True	18		0.731	0.22533333333333327	-0.8013795749473751	-0.8071146980452074
1	2.0	123	417	11+0	11	0	11	True	11		0.576	0.04466666666666663	-1.0161787516643035	-1.0581815919689088
1	2.0	124	418	17+9	17	9	26	False	23		1.186	0.7043333333333333	-0.17084005619768242	-0.1414631730113348
1	2.0	125	419	12+19	12	19	31	True	31		1.676	1.186	0.5082025024558329	0.527894136434696
1	2.0	126	420	16+20	16	20	36	True	36		2.187	1.6713333333333331	1.2163468850516415	1.2023468994474436
1	2.0	127	421	14+5	14	5	19	True	19		0.966	0.506	-0.47571630702170964	-0.41708088866558257
1	2.0	128	422	19+1	19	1	20	True	20		0.867	0.3394999999999999	-0.6129106198925219	-0.6484608028996951
1	2.0	129	423	1+0	1	0	1	True	1		0.607	0.07599999999999996	-0.9732189163209178	-1.0146386251260529
1	2.0	13	307	2+16	2	16	18	True	18		1.688	1.1823333333333332	0.5248321161371434	0.5227986828679787
1	2.0	130	424	12+12	12	12	24	True	24		1.439	0.8826666666666667	0.17976763224994913	0.10636115955172865
1	2.0	131	425	10+0	10	0	10	True	10		0.662	0.11499999999999999	-0.8969998536149109	-0.9604415280982428
1	2.0	132	426	12+7	12	7	19	False	2	9	0.721	0.26099999999999995	-0.8152375863484673	-0.7575498315325949
1	2.0	133	427	4+10	4	10	14	True	14		0.79	0.31366666666666676	-0.7196173076809314	-0.684360589392475
1	2.0	134	428	6+9	6	9	15	True	15		0.672	0.22766666666666674	-0.8831418422138188	-0.8038721366845691
1	2.0	135	429	10+16	10	16	26	True	26		1.687	1.2053333333333334	0.5234463149970344	0.5547610734228412
1	2.0	136	430	7+14	7	14	21	True	21		0.865	0.3533333333333334	-0.6156822221727404	-0.6292370462616255
1	2.0	137	431	17+2	17	2	19	True	19		0.777	0.317	-0.7376327225023512	-0.6797283588772777
1	2.0	138	432	17+7	17	7	24	True	24		0.989	0.43266666666666664	-0.4438428807991977	-0.5189899599999264
1	2.0	139	433	7+10	7	10	17	True	17		1.857	1.4143333333333332	0.7590325088156008	0.8452019267257207
1	2.0	14	308	18+7	18	7	25	True	25		0.841	0.367	-0.6489414495353615	-0.6102449011493161
1	2.0	140	434	13+6	13	6	19	True	19		1.083	0.623	-0.3135775736289315	-0.25448959758215234
1	2.0	141	435	10+11	10	11	21	True	21		1.132	0.6203333333333333	-0.2456733177635801	-0.2581953819943103
1	2.0	142	436	10+10	10	10	20	True	20		1.614	1.0865	0.4222828317690618	0.38962205555605234
1	2.0	143	437	15+7	15	7	22	True	22		0.858	0.34533333333333327	-0.6253828301535048	-0.6403543994980995
1	2.0	144	438	8+0	8	0	8	True	8		0.63	0.10433333333333339	-0.9413454900984058	-0.9752646657468745
1	2.0	145	439	6+7	6	7	13	True	13		0.646	0.20966666666666672	-0.9191726718566584	-0.8288861814666354
1	2.0	146	440	14+11	14	11	25	True	25		2.382	1.9080000000000001	1.486578107372939	1.5312352660264625
1	2.0	15	309	6+13	6	13	19	True	19		0.795	0.335	-0.7126883019803854	-0.6547143140952114
1	2.0	16	310	20+20	20	20	40	True	40		1.031	0.5389999999999999	-0.3856392329146108	-0.371221806565128
1	2.0	17	311	8+5	8	5	13	True	13		0.685	0.24866666666666676	-0.865126427392399	-0.7746890844388251
1	2.0	18	312	0+19	0	19	19	True	19		0.622	0.16199999999999998	-0.9524318992192795	-0.895127077833959
1	2.0	19	313	1+20	1	20	21	False	2	1	0.578	0.06633333333333336	-1.013407149384085	-1.0280720936201255
1	2.0	2	296	10+18	10	18	28	True	28		1.58	1.0616666666666665	0.37516559300534846	0.35511193821783116
1	2.0	20	314	7+12	7	12	19	True	19		0.802	0.342	-0.7029876939996208	-0.6449866300132968
1	2.0	21	315	20+2	20	2	22	True	22		0.639	0.1263333333333333	-0.9288732798374228	-0.9446919443465716
1	2.0	22	316	5+4	5	4	9	True	9		0.759	0.14300000000000002	-0.7625771430243171	-0.9215307917705843
1	2.0	23	317	0+1	0	1	1	True	1		0.612	0.08099999999999996	-0.9662899106203717	-1.0076902793532567
1	2.0	24	318	11+1	11	1	12	True	12		0.832	0.35033333333333333	-0.6614136597963445	-0.6334060537253032
1	2.0	25	319	12+9	12	9	21	True	21		0.908	0.3963333333333334	-0.5560927731480441	-0.5694812726155783
1	2.0	26	320	11+4	11	4	15	True	15		1.418	0.9736666666666667	0.1506658083076554	0.2328210526166188
1	2.0	27	321	1+5	1	5	6	True	6		0.784	0.30866666666666664	-0.7279321145215867	-0.6913089351652714
1	2.0	28	322	18+2	18	2	20	True	20		0.858	0.3304999999999999	-0.6253828301535048	-0.6609678252907282
1	2.0	29	323	3+16	3	16	19	True	19		1.004	0.544	-0.42305586369755943	-0.3642734607923317
1	2.0	3	297	1+18	1	18	19	True	19		0.754	0.294	-0.7695061487248631	-0.71169074943214
1	2.0	30	324	18+4	18	4	22	True	22		0.802	0.28933333333333333	-0.7029876939996208	-0.7181758721534165
1	2.0	31	325	0+3	0	3	3	True	3		0.655	0.09799999999999998	-0.9067004615956754	-0.9840659037257498
1	2.0	32	326	10+14	10	14	24	False	2	4	1.041	0.4846666666666666	-0.3717812215135186	-0.44672716396284634
1	2.0	33	327	20+1	20	1	21	True	21		0.622	0.1103333333333334	-0.9524318992192795	-0.9669266508195191
1	2.0	34	328	0+7	0	7	7	True	7		0.655	0.09433333333333338	-0.9067004615956754	-0.9891613572924669
1	2.0	35	329	15+18	15	18	33	True	33		2.132	1.5746666666666669	1.140127822345635	1.0680122145067183
1	2.0	36	330	16+15	16	15	31	True	31		1.957	1.467	0.8976126228265224	0.9183911688658406
1	2.0	37	331	8+10	8	10	18	True	18		1.064	0.5583333333333333	-0.33990779529100645	-0.3443548695769827
1	2.0	38	332	3+7	3	7	10	True	10		0.686	0.139	-0.8637406262522898	-0.9270894683888211
1	2.0	39	333	1+12	1	12	13	False	1	2	0.962	0.5256666666666667	-0.4812595115821465	-0.3897507286259176
1	2.0	4	298	19+10	19	10	29	True	29		1.348	0.869	0.053659728500010606	0.08736901443941905
1	2.0	40	334	1+6	1	6	7	True	7		0.842	0.2813333333333333	-0.6475556483952523	-0.7292932253898904
1	2.0	41	335	11+20	11	20	31	True	31		2.799	2.309	2.0644571827984812	2.088492597004715
1	2.0	42	336	1+13	1	13	14	True	14		0.829	0.3526666666666667	-0.6655710632166721	-0.630163492364665
1	2.0	43	337	18+8	18	8	26	True	26		1.15	0.6683333333333332	-0.22072889724161418	-0.19149126257546722
1	2.0	44	338	19+17	19	17	36	True	36		1.866	1.3503333333333334	0.7715047190765839	0.75626310083393
1	2.0	45	339	3+17	3	17	20	True	20		1.505	0.9774999999999998	0.2712305074971571	0.2381481177090956
1	2.0	46	340	4+4	4	4	8	True	8		0.843	0.31733333333333336	-0.646169847255143	-0.6792651358257579
1	2.0	47	341	11+9	11	9	20	False	21		1.05	0.5225	-0.3593090112525355	-0.3941513476153553
1	2.0	48	342	4+11	4	11	15	True	15		1.784	1.3396666666666668	0.6578690255876283	0.7414399631852984
1	2.0	49	343	0+18	0	18	18	True	18		0.688	0.18233333333333324	-0.8609690239720714	-0.8668704716912545
1	2.0	5	299	10+13	10	13	23	True	23		1.16	0.6766666666666665	-0.20687088584052202	-0.17991068628747364
1	2.0	50	344	11+15	11	15	26	True	26		1.363	0.8813333333333333	0.0744467456016487	0.10450826734564957
1	2.0	51	345	4+15	4	15	19	True	19		0.775	0.315	-0.7404043247825697	-0.6825076971863961
1	2.0	52	346	2+14	2	14	16	False	26		1.032	0.5306666666666667	-0.3842534317745014	-0.3828023828531214
1	2.0	53	347	15+0	15	0	15	True	15		0.667	0.22266666666666673	-0.8900708479143649	-0.8108204824573652
1	2.0	54	348	6+15	6	15	21	True	21		0.778	0.2663333333333334	-0.736246921362242	-0.7501382627082787
1	2.0	55	349	9+16	9	16	25	True	25		2.084	1.61	1.0736093676203928	1.117113857967811
1	2.0	56	350	7+0	7	0	7	True	7		0.677	0.1163333333333334	-0.8762128365132726	-0.9585886358921637
1	2.0	57	351	6+8	6	8	14	True	14		0.73	0.2536666666666667	-0.8027653760874843	-0.7677407386660291
1	2.0	58	352	0+12	0	12	12	True	12		0.62	0.13833333333333336	-0.955203501499498	-0.9280159144918606
1	2.0	59	353	18+11	18	11	29	True	29		1.326	0.847	0.02317210341760785	0.056796293039115896
1	2.0	6	300	10+17	10	17	27	True	27		1.16	0.6569999999999999	-0.20687088584052202	-0.2072408463271385
1	2.0	60	354	5+14	5	14	19	True	19		0.782	0.322	-0.7307037168018051	-0.6727800131044815
1	2.0	61	355	16+10	16	10	26	True	26		1.439	0.9573333333333334	0.17976763224994913	0.21012312309215136
1	2.0	62	356	16+1	16	1	17	True	17		0.877	0.4343333333333333	-0.5990526084914297	-0.5166738447423277
1	2.0	63	357	9+7	9	7	16	True	16		0.732	0.2306666666666667	-0.7999937738072659	-0.7997031292208915
1	2.0	64	358	14+8	14	8	22	True	22		1.086	0.5733333333333334	-0.30942017020860374	-0.3235098322585942
1	2.0	65	359	14+13	14	13	27	True	27		1.192	0.689	-0.1625252493570271	-0.162771433381243
1	2.0	66	360	11+14	11	14	25	True	25		1.219	0.7450000000000001	-0.12510861857407812	-0.08494996072592571
1	2.0	67	361	13+1	13	1	14	True	14		0.847	0.3706666666666667	-0.6406266426947063	-0.6051494475825988
1	2.0	68	362	14+18	14	18	32	True	32		2.193	1.655	1.2246616918922972	1.1796489699229764
1	2.0	69	363	16+3	16	3	19	True	19		0.669	0.20900000000000002	-0.8872992456341464	-0.8298126275696748
1	2.0	7	301	17+5	17	5	22	True	22		1.014	0.5013333333333333	-0.40919785229646727	-0.42356601138685906
1	2.0	70	364	17+19	17	19	36	True	36		2.119	1.6033333333333335	1.1221124075242155	1.1078493969374161
1	2.0	71	365	10+4	10	4	14	False	1	4	0.962	0.4856666666666667	-0.4812595115821465	-0.445337494808287
1	2.0	72	366	4+6	4	6	10	True	10		1.194	0.6469999999999999	-0.15975364707680867	-0.22113753787273083
1	2.0	73	367	6+2	6	2	8	True	8		0.731	0.20533333333333337	-0.8013795749473751	-0.834908081136392
1	2.0	74	368	11+7	11	7	18	True	18		0.862	0.3563333333333333	-0.6198396255930679	-0.6250680387979479
1	2.0	75	369	16+14	16	14	30	True	30		1.488	0.982	0.24767188811530055	0.2444016289046124
1	2.0	76	370	2+17	2	17	19	False	37		2.718	2.258	1.9522072904496348	2.017619470122194
1	2.0	77	371	5+10	5	10	15	True	15		1.394	0.9496666666666667	0.11740658094503424	0.1994689929071972
1	2.0	78	372	20+10	20	10	30	True	30		1.047	0.5409999999999999	-0.3634664146728633	-0.3684424682560095
1	2.0	79	373	9+8	9	8	17	True	17		0.686	0.24333333333333335	-0.8637406262522898	-0.782100653263141
1	2.0	8	302	19+18	19	18	37	True	37		1.809	1.2906666666666666	0.6925140540903585	0.6733461746118957
1	2.0	80	374	9+10	9	10	19	True	19		1.267	0.8069999999999999	-0.05859016384883606	0.0012095268567465175
1	2.0	81	375	2+11	2	11	13	True	13		2.054	1.6176666666666666	1.032035333417116	1.127767988152765
1	2.0	82	376	1+2	1	2	3	True	3		0.817	0.2599999999999999	-0.6822006768979827	-0.7589395006871541
1	2.0	83	377	15+19	15	19	34	True	34		1.711	1.185	0.5567055423596556	0.5265044672801368
1	2.0	84	378	6+12	6	12	18	True	18		0.906	0.4003333333333333	-0.5588643754282625	-0.5639225959973416
1	2.0	85	379	0+11	0	11	11	True	11		0.938	0.4066666666666666	-0.5145187389447677	-0.5551213580184665
1	2.0	86	380	13+13	13	13	26	True	26		0.945	0.46333333333333326	-0.5048181309640032	-0.47637343926011
1	2.0	87	381	5+5	5	5	10	False	1	0	0.739	0.19199999999999995	-0.7902931658265014	-0.8534370031971819
1	2.0	88	382	16+9	16	9	25	True	25		1.216	0.742	-0.12926602199440593	-0.08911896818960356
1	2.0	89	383	3+12	3	12	15	True	15		1.186	0.7416666666666667	-0.17084005619768242	-0.08958219124112327
1	2.0	9	303	15+13	15	13	28	True	28		1.179	0.6606666666666666	-0.18054066417844677	-0.20214539276042126
1	2.0	90	384	20+14	20	14	34	True	34		1.724	1.198	0.5747209571810753	0.5445701662894067
1	2.0	91	385	7+1	7	1	8	True	8		0.703	0.17733333333333334	-0.8401820068704332	-0.8738188174640505
1	2.0	92	386	8+13	8	13	21	True	21		1.349	0.8373333333333334	0.05504552964011967	0.0433628245450434
1	2.0	93	387	16+2	16	2	18	True	18		0.743	0.23733333333333329	-0.7847499612660646	-0.7904386681904967
1	2.0	94	388	4+0	4	0	4	True	4		0.589	0.08399999999999996	-0.9981633368428837	-1.003521271889579
1	2.0	95	389	16+19	16	19	35	True	35		1.64	1.134	0.4583136614119011	0.4556313403976157
1	2.0	96	390	10+12	10	12	22	True	22		1.988	1.4753333333333334	0.940572458169908	0.9299717451538342
1	2.0	97	391	7+18	7	18	25	True	25		1.403	0.929	0.12987879120601734	0.1707491637129731
1	2.0	98	392	13+3	13	3	16	True	16		0.816	0.31466666666666665	-0.6835864780380919	-0.682970920237916
1	2.0	99	393	9+18	9	18	27	True	27		1.557	1.0539999999999998	0.3432921667828363	0.34445780803287696
2	0.0	0	0	14+16	14	16	30	True	30		2.769	1.6963333333333335	3.3263716817968696	3.2885945273318375
2	0.0	1	1	10+3	10	3	13	True	13		1.259	0.2693333333333333	-0.37070723749456874	-0.38810251805734414
2	0.0	10	10	13+2	13	2	15	True	15		1.413	0.3573333333333335	0.006345844340452393	-0.16136857272150065
2	0.0	100	100	20+14	20	14	34	True	34		1.359	0.3363333333333334	-0.12586757396533424	-0.2154755369493726
2	0.0	101	101	14+17	14	17	31	True	31		1.399	0.44866666666666666	-0.02793170855364044	0.073953779634639
2	0.0	102	102	19+17	19	17	36	True	36		1.692	0.6103333333333332	0.6894485055870159	0.4904915201190472
2	0.0	103	103	17+10	17	10	27	True	27		1.842	0.6066666666666669	1.0567080008808676	0.48104427239672143
2	0.0	104	104	12+4	12	4	16	True	16		1.673	0.7560000000000001	0.6429289695164616	0.8658049069060305
2	0.0	105	105	11+11	11	11	22	True	22		1.439	0.4953333333333334	0.07000415685805336	0.19419147791879837
2	0.0	106	106	11+16	11	16	27	True	27		1.63	0.3946666666666667	0.5376479141988905	-0.0651784140941736
2	0.0	107	107	2+2	2	2	4	True	4		1.016	0.09100000000000008	-0.9656676198706078	-0.8475822936432379
2	0.0	108	108	19+4	19	4	23	True	23		1.734	0.749	0.7922811642692944	0.8477692521634063
2	0.0	109	109	18+8	18	8	26	True	26		1.436	0.33433333333333337	0.06265896695217606	-0.22062858116155085
2	0.0	11	11	13+6	13	6	19	True	19		1.256	0.273	-0.37805242740044553	-0.3786552703350172
2	0.0	110	110	3+5	3	5	8	True	8		0.931	0.07233333333333336	-1.1737813338704568	-0.8956773729569016
2	0.0	111	111	2+5	2	5	7	True	7		1.18	0.29966666666666664	-0.5641305716826638	-0.30994801417264073
2	0.0	112	112	6+6	6	6	12	True	12		1.157	0.15599999999999992	-0.6204436942943874	-0.6801083567474452
2	0.0	113	113	6+11	6	11	17	True	17		1.188	0.14733333333333332	-0.544543398600325	-0.7024382150002174
2	0.0	114	114	0+1	0	1	1	True	1		0.892	0.15400000000000003	-1.2692688026468584	-0.6852614009596232
2	0.0	115	115	8+5	8	5	13	True	13		1.078	0.08833333333333349	-0.8138670284824824	-0.8544530192594754
2	0.0	116	116	0+7	0	7	7	True	7		0.954	0.07366666666666666	-1.1174682112587333	-0.8922420101487829
2	0.0	117	117	8+6	8	6	14	True	14		1.05	0.06700000000000006	-0.8824221342706681	-0.9094188241893769
2	0.0	118	118	10+20	10	20	30	True	30		1.372	0.29933333333333345	-0.09403841770653348	-0.31080685487467
2	0.0	119	119	11+20	11	20	31	True	31		1.964	1.0136666666666665	1.3554123903865332	1.5296887695749941
2	0.0	12	12	17+20	17	20	37	True	37		1.986	0.6596666666666666	1.409277116362965	0.6175999440194443
2	0.0	120	120	12+17	12	17	29	True	29		1.84	0.8956666666666667	1.051811207610283	1.2256591610564782
2	0.0	121	121	13+9	13	9	22	True	22		1.385	0.44133333333333336	-0.06220926144773327	0.05505928418998549
2	0.0	122	122	19+12	19	12	31	True	31		1.816	0.8656666666666667	0.9930496883632667	1.1483634978738042
2	0.0	123	123	0+11	0	11	11	True	11		0.878	-0.010333333333333306	-1.3035463555409512	-1.1086698670602693
2	0.0	124	124	4+11	4	11	15	True	15		1.119	0.06333333333333346	-0.7134827664354966	-0.9188660719117036
2	0.0	125	125	15+14	15	14	29	True	29		1.278	0.33366666666666667	-0.32418770142401393	-0.22234626256561038
2	0.0	126	126	11+7	11	7	18	True	18		1.234	0.277	-0.43191715337687714	-0.36834918191066074
2	0.0	127	127	11+3	11	3	14	True	14		1.096	0.1130000000000001	-0.7697958890472202	-0.7908988073092771
2	0.0	128	128	9+8	9	8	17	True	17		1.409	0.3683333333333334	-0.003447742200716988	-0.13302682955452053
2	0.0	129	129	16+4	16	4	20	True	20		1.202	0.2523333333333334	-0.5102658457062321	-0.431903393860859
2	0.0	13	13	7+12	7	12	19	True	19		1.187	0.20400000000000007	-0.546991795235617	-0.5564352956551668
2	0.0	130	130	2+3	2	3	5	True	5		0.913	0.03733333333333344	-1.2178524733057192	-0.9858556466700209
2	0.0	131	131	19+15	19	15	34	True	34		3.802	2.7793333333333337	5.855565406053859	6.078967968226361
2	0.0	132	132	10+15	10	15	25	True	25		1.404	0.2403333333333333	-0.015689725377178984	-0.46282165913392886
2	0.0	133	133	6+14	6	14	20	True	20		1.156	0.20633333333333337	-0.62289209092968	-0.5504234107409589
2	0.0	134	134	7+8	7	8	15	True	15		1.211	0.15533333333333355	-0.4882302759886008	-0.6818260381515038
2	0.0	135	135	2+0	2	0	2	True	2		0.847	0.029999999999999916	-1.3794466512350139	-1.004750142114675
2	0.0	136	136	0+15	0	15	15	True	15		1.171	0.11533333333333351	-0.5861661414002945	-0.784886922395069
2	0.0	137	137	6+12	6	12	18	True	18		1.171	0.21400000000000008	-0.5861661414002945	-0.5306700745942755
2	0.0	138	138	11+14	11	14	25	True	25		1.8	0.6363333333333334	0.9538753421985892	0.5574810948773651
2	0.0	139	139	4+8	4	8	12	True	12		1.113	0.11199999999999988	-0.7281731462472506	-0.7934753294153668
2	0.0	14	14	20+17	20	17	37	True	37		1.634	0.30766666666666653	0.5474415007400598	-0.289335837323928
2	0.0	140	140	6+13	6	13	19	True	19		1.051	0.06799999999999995	-0.879973737635376	-0.9068423020832881
2	0.0	141	141	11+15	11	15	26	True	26		1.442	0.3403333333333334	0.07734934676393013	-0.2051694485250161
2	0.0	142	142	9+18	9	18	27	True	27		2.316	1.0806666666666667	2.2172480060094375	1.702315750682966
2	0.0	143	143	3+2	3	2	5	True	5		1.312	0.43633333333333346	-0.2409422158240742	0.04217667365954014
2	0.0	144	144	9+13	9	13	22	True	22		1.832	0.8883333333333334	1.0322240345279443	1.2067646656118247
2	0.0	145	145	19+18	19	18	37	True	37		2.059	0.7326666666666668	1.5880100707393063	0.805686057763951
2	0.0	146	146	20+19	20	19	39	True	39		1.492	0.45066666666666677	0.1997691785285474	0.07910682384681754
2	0.0	15	15	10+8	10	8	18	True	18		1.274	0.31700000000000006	-0.33398128796518334	-0.26528829766709566
2	0.0	16	16	18+4	18	4	22	True	22		1.154	0.21033333333333326	-0.6277888842002647	-0.5401173223166027
2	0.0	17	17	18+11	18	11	29	True	29		1.698	0.7536666666666666	0.70413888539877	0.8597930219918221
2	0.0	18	18	12+11	12	11	23	True	23		2.086	1.101	1.6541167798921987	1.7547050335067782
2	0.0	19	19	5+19	5	19	24	True	24		2.06	1.113	1.5904584673745983	1.7856232987798477
2	0.0	2	2	4+18	4	18	22	True	22		1.372	0.42833333333333345	-0.09403841770653348	0.021564496810827123
2	0.0	20	20	2+1	2	1	3	True	3		1.161	0.27866666666666673	-0.610650107753218	-0.3640549784005121
2	0.0	21	21	15+0	15	0	15	True	15		1.447	0.39133333333333353	0.08959132994039212	-0.0737668211144703
2	0.0	22	22	0+6	0	6	6	True	6		1.093	0.11333333333333329	-0.7771410789530975	-0.7900399666072477
2	0.0	23	23	20+16	20	16	36	True	36		1.593	0.5113333333333332	0.447057238693074	0.23541583161622384
2	0.0	24	24	12+3	12	3	15	True	15		1.285	0.2293333333333334	-0.3070489249769678	-0.49116340230090894
2	0.0	25	25	1+3	1	3	4	True	4		1.026	0.10100000000000009	-0.9411836535176844	-0.8218170725823466
2	0.0	26	26	15+4	15	4	19	True	19		1.297	0.31399999999999995	-0.2776681653534597	-0.2730178639853633
2	0.0	27	27	6+5	6	5	11	True	11		1.272	0.3836666666666667	-0.338878081235768	-0.093520157261154
2	0.0	28	28	4+17	4	17	21	True	21		1.993	1.0016666666666667	1.4264158928100115	1.4987705043019253
2	0.0	29	29	10+9	10	9	19	True	19		1.017	0.03399999999999992	-0.9632192232353157	-0.9944440536903184
2	0.0	3	3	15+13	15	13	28	True	28		1.984	0.9103333333333332	1.4043803230923801	1.2634481519457847
2	0.0	30	30	7+16	7	16	23	True	23		1.348	0.3630000000000001	-0.15279993695354976	-0.14676828078699578
2	0.0	31	31	20+0	20	0	20	True	20		1.223	0.27333333333333354	-0.45884951636509264	-0.37779642963298704
2	0.0	32	32	3+8	3	8	11	True	11		1.538	0.6496666666666667	0.31239542375199525	0.5918347229585533
2	0.0	33	33	6+1	6	1	7	True	7		1.693	0.8126666666666668	0.6918969022223085	1.0118078262510808
2	0.0	34	34	18+13	18	13	31	True	31		1.707	0.7566666666666667	0.7261744551164013	0.8675225883100897
2	0.0	35	35	13+16	13	16	29	True	29		2.044	1.0996666666666668	1.5512841212099209	1.7512696706986597
2	0.0	36	36	18+14	18	14	32	True	32		2.09	1.1586666666666665	1.663910366433368	1.9032844749579174
2	0.0	37	37	10+13	10	13	23	True	23		1.334	0.3490000000000001	-0.1870774898476426	-0.18283959027224356
2	0.0	38	38	7+4	7	4	11	True	11		1.313	0.42466666666666664	-0.23849381918878212	0.01211724908849994
2	0.0	39	39	20+6	20	6	26	True	26		1.328	0.2263333333333335	-0.20176786965939666	-0.49889296861917604
2	0.0	4	4	17+19	17	19	36	True	36		2.445	1.363333333333333	2.53309117196215	2.430612666004158
2	0.0	40	40	16+19	16	19	35	True	35		2.78	1.7163333333333333	3.3533040447850846	3.34012496945362
2	0.0	41	41	16+8	16	8	24	True	24		1.731	0.784	0.7849359743634177	0.9379475258765257
2	0.0	42	42	19+2	19	2	21	True	21		1.402	0.4106666666666665	-0.020586518647763678	-0.02395406039674813
2	0.0	43	43	13+12	13	12	25	True	25		1.907	0.7433333333333334	1.2158537821748698	0.8331689602289014
2	0.0	44	44	3+1	3	1	4	True	4		1.094	0.16900000000000015	-0.7746926823178049	-0.646613569368286
2	0.0	45	45	9+7	9	7	16	True	16		1.651	0.7340000000000001	0.58906424354003	0.8091214205720697
2	0.0	46	46	12+7	12	7	19	True	19		1.491	0.5080000000000001	0.19732078189325533	0.22682742459592742
2	0.0	47	47	8+4	8	4	12	True	12		1.344	0.34299999999999997	-0.16259352349471914	-0.19829872290877862
2	0.0	48	48	7+11	7	11	18	True	18		1.223	0.2660000000000001	-0.45884951636509264	-0.39669092507764087
2	0.0	49	49	10+10	10	10	20	True	20		1.585	0.6353333333333334	0.4274700656107352	0.5549045727712759
2	0.0	5	5	3+6	3	6	9	True	9		1.213	0.41333333333333344	-0.4833334827180161	-0.01708333478050979
2	0.0	50	50	9+12	9	12	21	True	21		1.931	0.9396666666666667	1.2746153014218862	1.3390261337243994
2	0.0	51	51	6+0	6	0	6	True	6		1.04	0.06033333333333335	-0.9069061006235916	-0.9265956382299713
2	0.0	52	52	20+13	20	13	33	True	33		1.736	0.7636666666666667	0.7971779575398791	0.8855582430527136
2	0.0	53	53	11+13	11	13	24	True	24		1.704	0.7569999999999999	0.718829265210524	0.868381429012119
2	0.0	54	54	4+9	4	9	13	True	13		1.527	0.5373333333333333	0.2854630607637792	0.30240540637454144
2	0.0	55	55	2+17	2	17	19	True	19		1.282	0.29900000000000004	-0.3143941148828446	-0.31166569557669993
2	0.0	56	56	3+9	3	9	12	True	12		1.756	0.7549999999999999	0.846145890245726	0.8632283847999408
2	0.0	57	57	12+8	12	8	20	True	20		1.19	0.2403333333333334	-0.5396466053297403	-0.46282165913392853
2	0.0	58	58	2+16	2	16	18	True	18		1.25	0.29300000000000004	-0.3927428072121996	-0.3271248282132347
2	0.0	59	59	10+12	10	12	22	True	22		1.267	0.32333333333333325	-0.35112006441223	-0.24897032432853156
2	0.0	6	6	2+13	2	13	15	True	15		1.852	0.7963333333333336	1.081191967233791	0.9697246318516255
2	0.0	60	60	20+12	20	12	32	True	32		1.437	0.5056666666666667	0.06510736358746867	0.22081553968171927
2	0.0	61	61	18+1	18	1	19	True	19		1.21	0.22699999999999998	-0.4906786726238934	-0.4971752872151171
2	0.0	62	62	14+11	14	11	25	True	25		1.779	0.6153333333333333	0.9024590128574497	0.5033741306494931
2	0.0	63	63	14+7	14	7	21	True	21		1.664	0.6726666666666665	0.6208933997988302	0.6510947313986027
2	0.0	64	64	3+10	3	10	13	True	13		1.203	0.21333333333333349	-0.5078174490709395	-0.5323877559983348
2	0.0	65	65	6+10	6	10	16	True	16		1.586	0.6690000000000002	0.42991846224602787	0.6416474836762767
2	0.0	66	66	1+8	1	8	9	True	9		0.964	0.16433333333333333	-1.0929842449058098	-0.6586373391967022
2	0.0	67	67	20+18	20	18	38	True	38		2.0	0.9513333333333334	1.4435546692570576	1.3690855582954393
2	0.0	68	68	11+12	11	12	23	True	23		2.112	1.1270000000000002	1.7177750924098003	1.821694608265096
2	0.0	69	69	16+17	16	17	33	True	33		1.8	0.8276666666666668	0.9538753421985892	1.0504556578424178
2	0.0	7	7	5+20	5	20	25	True	25		1.362	0.19833333333333347	-0.11852238405945693	-0.5710355875896717
2	0.0	70	70	0+16	0	16	16	True	16		1.136	0.21899999999999997	-0.671860023635527	-0.5177874640638301
2	0.0	71	71	8+10	8	10	18	True	18		1.299	0.34199999999999997	-0.27277137208287494	-0.20087524501486775
2	0.0	72	72	16+5	16	5	21	True	21		1.396	0.4046666666666665	-0.035276898459517744	-0.039413193033282896
2	0.0	73	73	9+10	9	10	19	True	19		1.019	0.03599999999999992	-0.958322429964731	-0.9892910094781402
2	0.0	74	74	20+5	20	5	25	True	25		1.167	0.0033333333333334103	-0.595959727941464	-1.0734573982770512
2	0.0	75	75	19+7	19	7	26	True	26		2.668	1.5663333333333336	3.079083621632343	2.9536466535402517
2	0.0	76	76	0+17	0	17	17	True	17		1.569	0.5283333333333333	0.3882957194460577	0.2792167074197393
2	0.0	77	77	13+13	13	13	26	True	26		1.48	0.3783333333333334	0.17038841890503925	-0.10726160849362926
2	0.0	78	78	11+5	11	5	16	True	16		1.102	0.18500000000000016	-0.7551055092354662	-0.6053892156708599
2	0.0	79	79	15+11	15	11	26	True	26		2.587	1.4853333333333336	2.8807634941736633	2.744948362947033
2	0.0	8	8	9+0	9	0	9	True	9		1.096	0.29633333333333345	-0.7697958890472202	-0.3185364211929374
2	0.0	80	80	14+20	14	20	34	True	34		2.236	1.2133333333333336	2.0213762751860513	2.0441343500907907
2	0.0	81	81	9+4	9	4	13	True	13		1.223	0.2333333333333335	-0.45884951636509264	-0.4808573138765522
2	0.0	82	82	4+20	4	20	24	True	24		1.098	0.15100000000000002	-0.7648990957766355	-0.6929909672778906
2	0.0	83	83	14+13	14	13	27	True	27		1.67	0.43466666666666676	0.6355837796105843	0.0378824701493915
2	0.0	84	84	3+18	3	18	21	True	21		1.24	0.2486666666666666	-0.41722677356512305	-0.4413506415831862
2	0.0	85	85	8+0	8	0	8	True	8		1.061	0.20233333333333325	-0.8554897712824525	-0.5607294991653157
2	0.0	86	86	7+19	7	19	26	True	26		1.88	0.7783333333333333	1.1497470730219763	0.9233472339420206
2	0.0	87	87	14+19	14	19	33	True	33		2.886	1.9136666666666668	3.612834088126074	3.848558665055208
2	0.0	88	88	14+15	14	15	29	True	29		1.367	0.42266666666666663	-0.10628040088299548	0.006964204876321685
2	0.0	89	89	19+20	19	20	39	True	39		1.979	0.9376666666666669	1.3921383399159186	1.3338730895122217
2	0.0	9	9	9+19	9	19	28	True	28		1.431	0.3573333333333333	0.05041698377571461	-0.1613685727215012
2	0.0	90	90	7+1	7	1	8	True	8		1.058	0.19933333333333336	-0.8628349611883294	-0.5684590654835828
2	0.0	91	91	17+14	17	14	31	True	31		1.51	0.5596666666666666	0.24384031796380962	0.3599477334105319
2	0.0	92	92	9+14	9	14	23	True	23		1.94	0.955	1.296650871139517	1.3785328060177662
2	0.0	93	93	1+20	1	20	21	True	21		1.166	0.17466666666666653	-0.5984081245767566	-0.6320132774337817
2	0.0	94	94	17+5	17	5	22	True	22		2.925	1.9813333333333332	3.7083215569024746	4.022903327567238
2	0.0	95	95	15+20	15	20	35	True	35		1.861	0.7973333333333334	1.103227536951422	0.9723011539577143
2	0.0	96	96	16+12	16	12	28	True	28		1.49	0.4163333333333332	0.1948723852579627	-0.009353768462242978
2	0.0	97	97	4+6	4	6	10	True	10		1.423	0.4916666666666667	0.030829810693375845	0.1847442301964715
2	0.0	98	98	8+12	8	12	20	True	20		1.685	0.7353333333333335	0.6723097291399698	0.8125567833801887
2	0.0	99	99	0+19	0	19	19	True	19		1.102	0.1190000000000001	-0.7551055092354662	-0.7754396746727423
2	1.0	0	147	12+19	12	19	31	True	31		1.674	0.7236666666666666	0.6453773661517537	0.7824973588091482
2	1.0	1	148	1+17	1	17	18	True	18		1.133	0.17600000000000005	-0.6792052135414037	-0.6285779146256624
2	1.0	10	157	12+10	12	10	22	True	22		2.752	1.8083333333333331	3.284748938996899	3.577165003213819
2	1.0	100	247	11+2	11	2	13	True	13		1.057	0.06733333333333336	-0.865283357823622	-0.9085599834873473
