worker_id	segment	warmup	trial	stimulus	target	delay	correct	response	rt	addend1	addend2	addend1_s	addend2_s	calib_rt	keyboard	adjusted_rt
AC5FF0SJI0RXM	add2	False	0	5+3	8	638	True	8	1150	5	3	05	03	921.3333333333334	numbar	228.66666666666663
AC5FF0SJI0RXM	add2	False	134	2+6	8	958	True	8	2079	2	6	02	06	921.3333333333334	numbar	1157.6666666666665
AC5FF0SJI0RXM	add2	False	136	7+1	8	537	True	8	1264	7	1	07	01	921.3333333333334	numbar	342.66666666666663
AC5FF0SJI0RXM	add2	False	47	8+0	8	947	True	8	1053	8	0	08	00	921.3333333333334	numbar	131.66666666666663
AC5FF0SJI0RXM	add2	False	114	4+4	8	450	True	8	941	4	4	04	04	921.3333333333334	numbar	19.66666666666663
AC5FF0SJI0RXM	add2	False	19	6+2	8	955	True	8	1595	6	2	06	02	921.3333333333334	numbar	673.6666666666666
AC5FF0SJI0RXM	add2	False	25	0+8	8	819	True	8	946	0	8	00	08	921.3333333333334	numbar	24.66666666666663
AC5FF0SJI0RXM	add2	False	28	3+5	8	449	True	8	974	3	5	03	05	921.3333333333334	numbar	52.66666666666663
AC5FF0SJI0RXM	add2	False	65	1+7	8	877	True	8	955	1	7	01	07	921.3333333333334	numbar	33.66666666666663
AC5FF0SJI0RXM	add2	False	100	16+4	20	914	True	20	1359	16	4	16	04	759.0	numbar	600.0
AC5FF0SJI0RXM	add2	False	112	2+18	20	667	True	20	3745	2	18	02	18	759.0	numbar	2986.0
AC5FF0SJI0RXM	add2	False	130	19+1	20	428	True	20	1956	19	1	19	01	759.0	numbar	1197.0
AC5FF0SJI0RXM	add2	False	2	13+7	20	715	True	20	1270	13	7	13	07	759.0	numbar	511.0
AC5FF0SJI0RXM	add2	False	22	11+9	20	964	True	20	1139	11	9	11	09	759.0	numbar	380.0
AC5FF0SJI0RXM	add2	False	47	1+19	20	527	True	20	1353	1	19	01	19	759.0	numbar	594.0
AC5FF0SJI0RXM	add2	False	112	7+13	20	539	True	20	1735	7	13	07	13	759.0	numbar	976.0
AC5FF0SJI0RXM	add2	False	125	10+10	20	444	True	20	1277	10	10	10	10	759.0	numbar	518.0
AC5FF0SJI0RXM	add2	False	13	0+20	20	457	True	20	931	0	20	00	20	759.0	numbar	172.0
AC5FF0SJI0RXM	add2	False	25	18+2	20	506	True	20	2739	18	2	18	02	759.0	numbar	1980.0
AC5FF0SJI0RXM	add2	False	73	6+14	20	788	True	20	1501	6	14	06	14	759.0	numbar	742.0
AC5FF0SJI0RXM	add2	False	83	9+11	20	423	True	20	1489	9	11	09	11	759.0	numbar	730.0
AC5FF0SJI0RXM	add2	False	0	4+16	20	636	True	20	1077	4	16	04	16	759.0	numbar	318.0
AC5FF0SJI0RXM	add2	False	116	17+3	20	675	True	20	1244	17	3	17	03	759.0	numbar	485.0
AC5FF0SJI0RXM	add2	False	4	20+0	20	858	True	20	1084	20	0	20	00	759.0	numbar	325.0
AC5FF0SJI0RXM	add2	False	41	3+17	20	660	True	20	2548	3	17	03	17	759.0	numbar	1789.0
AC5FF0SJI0RXM	add2	False	57	14+6	20	496	True	20	1184	14	6	14	06	759.0	numbar	425.0
AC5FF0SJI0RXM	add2	False	63	5+15	20	460	True	20	1805	5	15	05	15	759.0	numbar	1046.0
AC5FF0SJI0RXM	add2	False	80	12+8	20	856	True	20	2730	12	8	12	08	759.0	numbar	1971.0
AC5FF0SJI0RXM	add2	False	92	15+5	20	759	True	20	1452	15	5	15	05	759.0	numbar	693.0
AC5FF0SJI0RXM	add2	False	101	8+8	16	710	True	16	1050	8	8	08	08	851.3333333333334	numbar	198.66666666666663
AC5FF0SJI0RXM	add2	False	29	4+12	16	698	True	16	1594	4	12	04	12	851.3333333333334	numbar	742.6666666666666
AC5FF0SJI0RXM	add2	False	3	11+5	16	773	True	16	1107	11	5	11	05	851.3333333333334	numbar	255.66666666666663
AC5FF0SJI0RXM	add2	False	11	16+0	16	952	True	16	2595	16	0	16	00	851.3333333333334	numbar	1743.6666666666665
AC5FF0SJI0RXM	add2	False	120	10+6	16	822	True	16	1418	10	6	10	06	851.3333333333334	numbar	566.6666666666666
AC5FF0SJI0RXM	add2	False	14	6+10	16	773	True	16	1275	6	10	06	10	851.3333333333334	numbar	423.66666666666663
AC5FF0SJI0RXM	add2	False	2	3+13	16	404	True	16	1275	3	13	03	13	851.3333333333334	numbar	423.66666666666663
AC5FF0SJI0RXM	add2	False	33	13+3	16	620	True	16	1321	13	3	13	03	851.3333333333334	numbar	469.66666666666663
AC5FF0SJI0RXM	add2	False	43	7+9	16	748	True	16	2574	7	9	07	09	851.3333333333334	numbar	1722.6666666666665
AC5FF0SJI0RXM	add2	False	44	14+2	16	575	True	16	1521	14	2	14	02	851.3333333333334	numbar	669.6666666666666
AC5FF0SJI0RXM	add2	False	56	2+14	16	938	True	16	1278	2	14	02	14	851.3333333333334	numbar	426.66666666666663
AC5FF0SJI0RXM	add2	False	65	12+4	16	522	True	16	1094	12	4	12	04	851.3333333333334	numbar	242.66666666666663
AC5FF0SJI0RXM	add2	False	123	5+11	16	685	True	16	1095	5	11	05	11	851.3333333333334	numbar	243.66666666666663
AC5FF0SJI0RXM	add2	False	13	9+7	16	960	True	16	2613	9	7	09	07	851.3333333333334	numbar	1761.6666666666665
AC5FF0SJI0RXM	add2	False	21	1+15	16	940	True	16	1125	1	15	01	15	851.3333333333334	numbar	273.66666666666663
AC5FF0SJI0RXM	add2	False	24	15+1	16	429	True	16	969	15	1	15	01	851.3333333333334	numbar	117.66666666666663
AC5FF0SJI0RXM	add2	False	56	0+16	16	873	True	16	1060	0	16	00	16	851.3333333333334	numbar	208.66666666666663
AC5FF0SJI0RXM	add2	False	102	10+0	10	737	True	10	921	10	0	10	00	580.0	numbar	341.0
AC5FF0SJI0RXM	add2	False	116	9+1	10	729	True	10	906	9	1	09	01	580.0	numbar	326.0
AC5FF0SJI0RXM	add2	False	60	7+3	10	516	True	10	1242	7	3	07	03	580.0	numbar	662.0
AC5FF0SJI0RXM	add2	False	66	6+4	10	551	True	10	896	6	4	06	04	580.0	numbar	316.0
AC5FF0SJI0RXM	add2	False	76	8+2	10	611	True	10	1363	8	2	08	02	580.0	numbar	783.0
AC5FF0SJI0RXM	add2	False	78	4+6	10	536	True	10	908	4	6	04	06	580.0	numbar	328.0
AC5FF0SJI0RXM	add2	False	123	5+5	10	520	True	10	879	5	5	05	05	580.0	numbar	299.0
AC5FF0SJI0RXM	add2	False	140	0+10	10	678	True	10	795	0	10	00	10	580.0	numbar	215.0
AC5FF0SJI0RXM	add2	False	81	1+9	10	728	True	10	945	1	9	01	09	580.0	numbar	365.0
AC5FF0SJI0RXM	add2	False	82	3+7	10	496	True	10	812	3	7	03	07	580.0	numbar	232.0
AC5FF0SJI0RXM	add2	False	107	2+8	10	583	True	10	2509	2	8	02	08	580.0	numbar	1929.0
AC5FF0SJI0RXM	add2	False	103	1+17	18	815	True	18	1085	1	17	01	17	714.0	numbar	371.0
AC5FF0SJI0RXM	add2	False	104	3+15	18	438	True	18	1170	3	15	03	15	714.0	numbar	456.0
AC5FF0SJI0RXM	add2	False	128	15+3	18	403	True	18	1000	15	3	15	03	714.0	numbar	286.0
AC5FF0SJI0RXM	add2	False	146	8+10	18	432	True	18	1922	8	10	08	10	714.0	numbar	1208.0
AC5FF0SJI0RXM	add2	False	49	6+12	18	859	True	18	1484	6	12	06	12	714.0	numbar	770.0
AC5FF0SJI0RXM	add2	False	97	13+5	18	806	True	18	1742	13	5	13	05	714.0	numbar	1028.0
AC5FF0SJI0RXM	add2	False	1	7+11	18	622	True	18	1360	7	11	07	11	714.0	numbar	646.0
AC5FF0SJI0RXM	add2	False	114	10+8	18	482	True	18	1316	10	8	10	08	714.0	numbar	602.0
AC5FF0SJI0RXM	add2	False	143	16+2	18	645	True	18	1552	16	2	16	02	714.0	numbar	838.0
AC5FF0SJI0RXM	add2	False	57	18+0	18	616	True	18	1103	18	0	18	00	714.0	numbar	389.0
AC5FF0SJI0RXM	add2	False	68	11+7	18	461	True	18	1245	11	7	11	07	714.0	numbar	531.0
AC5FF0SJI0RXM	add2	False	84	14+4	18	639	True	18	1794	14	4	14	04	714.0	numbar	1080.0
AC5FF0SJI0RXM	add2	False	126	17+1	18	931	True	18	1764	17	1	17	01	714.0	numbar	1050.0
AC5FF0SJI0RXM	add2	False	138	12+6	18	948	True	18	1300	12	6	12	06	714.0	numbar	586.0
AC5FF0SJI0RXM	add2	False	20	4+14	18	817	True	18	1201	4	14	04	14	714.0	numbar	487.0
AC5FF0SJI0RXM	add2	False	40	0+18	18	462	True	18	1065	0	18	00	18	714.0	numbar	351.0
AC5FF0SJI0RXM	add2	False	47	2+16	18	508	True	18	1387	2	16	02	16	714.0	numbar	673.0
AC5FF0SJI0RXM	add2	False	70	9+9	18	628	True	18	1536	9	9	09	09	714.0	numbar	822.0
AC5FF0SJI0RXM	add2	False	84	5+13	18	985	True	18	1399	5	13	05	13	714.0	numbar	685.0
AC5FF0SJI0RXM	add2	False	105	9+2	11	666	True	11	1389	9	2	09	02	640.3333333333334	numbar	748.6666666666666
AC5FF0SJI0RXM	add2	False	138	11+0	11	998	True	11	716	11	0	11	00	640.3333333333334	numbar	75.66666666666663
AC5FF0SJI0RXM	add2	False	55	2+9	11	886	True	11	1288	2	9	02	09	640.3333333333334	numbar	647.6666666666666
AC5FF0SJI0RXM	add2	False	89	0+11	11	838	True	11	673	0	11	00	11	640.3333333333334	numbar	32.66666666666663
AC5FF0SJI0RXM	add2	False	53	6+5	11	981	True	11	1202	6	5	06	05	640.3333333333334	numbar	561.6666666666666
AC5FF0SJI0RXM	add2	False	59	7+4	11	831	True	11	3832	7	4	07	04	640.3333333333334	numbar	3191.6666666666665
AC5FF0SJI0RXM	add2	False	72	5+6	11	675	True	11	834	5	6	05	06	640.3333333333334	numbar	193.66666666666663
AC5FF0SJI0RXM	add2	False	124	8+3	11	457	True	11	2791	8	3	08	03	640.3333333333334	numbar	2150.6666666666665
AC5FF0SJI0RXM	add2	False	68	4+7	11	891	True	11	1518	4	7	04	07	640.3333333333334	numbar	877.6666666666666
AC5FF0SJI0RXM	add2	False	78	1+10	11	939	True	11	1482	1	10	01	10	640.3333333333334	numbar	841.6666666666666
AC5FF0SJI0RXM	add2	False	95	10+1	11	821	True	11	849	10	1	10	01	640.3333333333334	numbar	208.66666666666663
AC5FF0SJI0RXM	add2	False	106	8+9	17	428	True	17	1490	8	9	08	09	775.5	numbar	714.5
AC5FF0SJI0RXM	add2	False	118	6+11	17	963	True	17	1304	6	11	06	11	775.5	numbar	528.5
AC5FF0SJI0RXM	add2	False	137	7+10	17	716	True	17	1313	7	10	07	10	775.5	numbar	537.5
AC5FF0SJI0RXM	add2	False	16	16+1	17	541	True	17	1026	16	1	16	01	775.5	numbar	250.5
AC5FF0SJI0RXM	add2	False	42	0+17	17	552	True	17	1426	0	17	00	17	775.5	numbar	650.5
AC5FF0SJI0RXM	add2	False	53	10+7	17	719	True	17	1172	10	7	10	07	775.5	numbar	396.5
AC5FF0SJI0RXM	add2	False	54	13+4	17	838	True	17	1199	13	4	13	04	775.5	numbar	423.5
AC5FF0SJI0RXM	add2	False	71	1+16	17	617	True	17	1031	1	16	01	16	775.5	numbar	255.5
AC5FF0SJI0RXM	add2	False	86	2+15	17	508	True	17	1290	2	15	02	15	775.5	numbar	514.5
AC5FF0SJI0RXM	add2	False	9	14+3	17	434	True	17	1281	14	3	14	03	775.5	numbar	505.5
AC5FF0SJI0RXM	add2	False	99	15+2	17	590	True	17	1149	15	2	15	02	775.5	numbar	373.5
AC5FF0SJI0RXM	add2	False	145	4+13	17	754	True	17	1382	4	13	04	13	775.5	numbar	606.5
AC5FF0SJI0RXM	add2	False	92	9+8	17	732	True	17	2612	9	8	09	08	775.5	numbar	1836.5
AC5FF0SJI0RXM	add2	False	113	3+14	17	688	True	17	1272	3	14	03	14	775.5	numbar	496.5
AC5FF0SJI0RXM	add2	False	32	11+6	17	766	True	17	1306	11	6	11	06	775.5	numbar	530.5
AC5FF0SJI0RXM	add2	False	42	5+12	17	663	True	17	1139	5	12	05	12	775.5	numbar	363.5
AC5FF0SJI0RXM	add2	False	7	12+5	17	609	True	17	1472	12	5	12	05	775.5	numbar	696.5
AC5FF0SJI0RXM	add2	False	96	17+0	17	745	True	17	1202	17	0	17	00	775.5	numbar	426.5
AC5FF0SJI0RXM	add2	False	11	0+0	0	990	True	0	752	0	0	00	00	737.0	numbar	15.0
AC5FF0SJI0RXM	add2	False	110	2+11	13	631	True	13	2912	2	11	02	11	772.3333333333334	numbar	2139.6666666666665
AC5FF0SJI0RXM	add2	False	84	8+5	13	734	True	13	3151	8	5	08	05	772.3333333333334	numbar	2378.6666666666665
AC5FF0SJI0RXM	add2	False	91	4+9	13	922	True	13	1477	4	9	04	09	772.3333333333334	numbar	704.6666666666666
AC5FF0SJI0RXM	add2	False	119	6+7	13	822	True	13	1911	6	7	06	07	772.3333333333334	numbar	1138.6666666666665
AC5FF0SJI0RXM	add2	False	121	10+3	13	869	True	13	1129	10	3	10	03	772.3333333333334	numbar	356.66666666666663
AC5FF0SJI0RXM	add2	False	69	0+13	13	714	True	13	1197	0	13	00	13	772.3333333333334	numbar	424.66666666666663
AC5FF0SJI0RXM	add2	False	118	12+1	13	722	True	13	1095	12	1	12	01	772.3333333333334	numbar	322.66666666666663
AC5FF0SJI0RXM	add2	False	30	13+0	13	634	True	13	979	13	0	13	00	772.3333333333334	numbar	206.66666666666663
AC5FF0SJI0RXM	add2	False	38	3+10	13	592	True	13	1294	3	10	03	10	772.3333333333334	numbar	521.6666666666666
AC5FF0SJI0RXM	add2	False	9	11+2	13	723	True	13	1730	11	2	11	02	772.3333333333334	numbar	957.6666666666666
AC5FF0SJI0RXM	add2	False	12	13+1	14	418	True	14	1100	13	1	13	01	713.3333333333334	numbar	386.66666666666663
AC5FF0SJI0RXM	add2	False	120	10+4	14	648	True	14	2574	10	4	10	04	713.3333333333334	numbar	1860.6666666666665
AC5FF0SJI0RXM	add2	False	134	11+3	14	411	True	14	1184	11	3	11	03	713.3333333333334	numbar	470.66666666666663
AC5FF0SJI0RXM	add2	False	135	5+9	14	857	True	14	2508	5	9	05	09	713.3333333333334	numbar	1794.6666666666665
AC5FF0SJI0RXM	add2	False	28	7+7	14	584	True	14	997	7	7	07	07	713.3333333333334	numbar	283.66666666666663
AC5FF0SJI0RXM	add2	False	35	9+5	14	660	True	14	2071	9	5	09	05	713.3333333333334	numbar	1357.6666666666665
AC5FF0SJI0RXM	add2	False	139	0+14	14	789	True	14	3255	0	14	00	14	713.3333333333334	numbar	2541.6666666666665
AC5FF0SJI0RXM	add2	False	146	4+10	14	969	True	14	1148	4	10	04	10	713.3333333333334	numbar	434.66666666666663
AC5FF0SJI0RXM	add2	False	40	8+6	14	877	True	14	3130	8	6	08	06	713.3333333333334	numbar	2416.6666666666665
AC5FF0SJI0RXM	add2	False	61	14+0	14	987	True	14	1911	14	0	14	00	713.3333333333334	numbar	1197.6666666666665
AC5FF0SJI0RXM	add2	False	136	2+12	14	675	True	14	1252	2	12	02	12	713.3333333333334	numbar	538.6666666666666
AC5FF0SJI0RXM	add2	False	15	3+11	14	479	True	14	1272	3	11	03	11	713.3333333333334	numbar	558.6666666666666
AC5FF0SJI0RXM	add2	False	59	1+13	14	965	True	14	1302	1	13	01	13	713.3333333333334	numbar	588.6666666666666
AC5FF0SJI0RXM	add2	False	62	12+2	14	668	True	14	1677	12	2	12	02	713.3333333333334	numbar	963.6666666666666
AC5FF0SJI0RXM	add2	False	79	6+8	14	824	True	14	2889	6	8	06	08	713.3333333333334	numbar	2175.6666666666665
AC5FF0SJI0RXM	add2	False	126	1+0	1	420	True	1	721	1	0	01	00	565.6666666666666	numbar	155.33333333333337
AC5FF0SJI0RXM	add2	False	27	0+1	1	625	True	1	734	0	1	00	01	565.6666666666666	numbar	168.33333333333337
AC5FF0SJI0RXM	add2	False	127	3+0	3	593	True	3	1088	3	0	03	00	1034.5	numbar	53.5
AC5FF0SJI0RXM	add2	False	144	0+3	3	469	True	3	956	0	3	00	03	1034.5	numbar	-78.5
AC5FF0SJI0RXM	add2	False	117	2+1	3	880	True	3	1050	2	1	02	01	1034.5	numbar	15.5
AC5FF0SJI0RXM	add2	False	67	1+2	3	482	True	3	2627	1	2	01	02	1034.5	numbar	1592.5
AC5FF0SJI0RXM	add2	False	129	8+4	12	922	True	12	3108	8	4	08	04	759.5	numbar	2348.5
AC5FF0SJI0RXM	add2	False	19	11+1	12	503	True	12	2158	11	1	11	01	759.5	numbar	1398.5
AC5FF0SJI0RXM	add2	False	34	5+7	12	621	True	12	3698	5	7	05	07	759.5	numbar	2938.5
AC5FF0SJI0RXM	add2	False	68	3+9	12	867	True	12	1203	3	9	03	09	759.5	numbar	443.5
AC5FF0SJI0RXM	add2	False	130	6+6	12	988	True	12	1347	6	6	06	06	759.5	numbar	587.5
AC5FF0SJI0RXM	add2	False	26	1+11	12	658	True	12	2346	1	11	01	11	759.5	numbar	1586.5
AC5FF0SJI0RXM	add2	False	63	9+3	12	810	True	12	1231	9	3	09	03	759.5	numbar	471.5
AC5FF0SJI0RXM	add2	False	71	10+2	12	927	True	12	1750	10	2	10	02	759.5	numbar	990.5
AC5FF0SJI0RXM	add2	False	80	0+12	12	978	True	12	967	0	12	00	12	759.5	numbar	207.5
AC5FF0SJI0RXM	add2	False	122	12+0	12	778	True	12	1045	12	0	12	00	759.5	numbar	285.5
AC5FF0SJI0RXM	add2	False	145	4+8	12	751	True	12	3979	4	8	04	08	759.5	numbar	3219.5
AC5FF0SJI0RXM	add2	False	13	9+10	19	588	True	19	1654	9	10	09	10	671.0	numbar	983.0
AC5FF0SJI0RXM	add2	False	24	3+16	19	870	True	19	1578	3	16	03	16	671.0	numbar	907.0
AC5FF0SJI0RXM	add2	False	58	8+11	19	815	True	19	1475	8	11	08	11	671.0	numbar	804.0
AC5FF0SJI0RXM	add2	False	7	0+19	19	710	True	19	1371	0	19	00	19	671.0	numbar	700.0
AC5FF0SJI0RXM	add2	False	80	19+0	19	700	True	19	1178	19	0	19	00	671.0	numbar	507.0
AC5FF0SJI0RXM	add2	False	88	5+14	19	755	True	19	1350	5	14	05	14	671.0	numbar	679.0
AC5FF0SJI0RXM	add2	False	122	13+6	19	486	True	19	1288	13	6	13	06	671.0	numbar	617.0
AC5FF0SJI0RXM	add2	False	29	15+4	19	854	True	19	1968	15	4	15	04	671.0	numbar	1297.0
AC5FF0SJI0RXM	add2	False	3	1+18	19	474	True	19	1149	1	18	01	18	671.0	numbar	478.0
AC5FF0SJI0RXM	add2	False	5	10+9	19	831	True	19	1484	10	9	10	09	671.0	numbar	813.0
AC5FF0SJI0RXM	add2	False	55	4+15	19	611	True	19	1516	4	15	04	15	671.0	numbar	845.0
AC5FF0SJI0RXM	add2	False	60	12+7	19	833	True	19	1905	12	7	12	07	671.0	numbar	1234.0
AC5FF0SJI0RXM	add2	False	91	11+8	19	507	True	19	1892	11	8	11	08	671.0	numbar	1221.0
AC5FF0SJI0RXM	add2	False	94	17+2	19	560	True	19	2263	17	2	17	02	671.0	numbar	1592.0
AC5FF0SJI0RXM	add2	False	120	14+5	19	683	True	19	1441	14	5	14	05	671.0	numbar	770.0
AC5FF0SJI0RXM	add2	False	129	2+17	19	834	True	19	3403	2	17	02	17	671.0	numbar	2732.0
AC5FF0SJI0RXM	add2	False	137	16+3	19	621	True	19	1108	16	3	16	03	671.0	numbar	437.0
AC5FF0SJI0RXM	add2	False	39	6+13	19	557	True	19	1234	6	13	06	13	671.0	numbar	563.0
AC5FF0SJI0RXM	add2	False	132	1+1	2	789	True	2	825	1	1	01	01	711.3333333333334	numbar	113.66666666666663
AC5FF0SJI0RXM	add2	False	79	0+2	2	759	True	2	957	0	2	00	02	711.3333333333334	numbar	245.66666666666663
AC5FF0SJI0RXM	add2	False	46	2+0	2	918	True	2	843	2	0	02	00	711.3333333333334	numbar	131.66666666666663
AC5FF0SJI0RXM	add2	False	133	7+8	15	491	True	15	2871	7	8	07	08	719.0	numbar	2152.0
AC5FF0SJI0RXM	add2	False	33	10+5	15	466	True	15	1059	10	5	10	05	719.0	numbar	340.0
AC5FF0SJI0RXM	add2	False	4	1+14	15	676	True	15	1058	1	14	01	14	719.0	numbar	339.0
AC5FF0SJI0RXM	add2	False	74	2+13	15	461	True	15	1644	2	13	02	13	719.0	numbar	925.0
AC5FF0SJI0RXM	add2	False	90	12+3	15	948	True	15	1163	12	3	12	03	719.0	numbar	444.0
AC5FF0SJI0RXM	add2	False	23	5+10	15	636	True	15	1276	5	10	05	10	719.0	numbar	557.0
AC5FF0SJI0RXM	add2	False	64	3+12	15	871	True	15	1257	3	12	03	12	719.0	numbar	538.0
AC5FF0SJI0RXM	add2	False	77	11+4	15	827	True	15	1092	11	4	11	04	719.0	numbar	373.0
AC5FF0SJI0RXM	add2	False	109	8+7	15	795	True	15	2853	8	7	08	07	719.0	numbar	2134.0
AC5FF0SJI0RXM	add2	False	146	4+11	15	915	True	15	1587	4	11	04	11	719.0	numbar	868.0
AC5FF0SJI0RXM	add2	False	23	14+1	15	515	True	15	1062	14	1	14	01	719.0	numbar	343.0
AC5FF0SJI0RXM	add2	False	34	13+2	15	881	True	15	1952	13	2	13	02	719.0	numbar	1233.0
AC5FF0SJI0RXM	add2	False	43	9+6	15	677	True	15	2106	9	6	09	06	719.0	numbar	1387.0
AC5FF0SJI0RXM	add2	False	72	0+15	15	995	True	15	1477	0	15	00	15	719.0	numbar	758.0
AC5FF0SJI0RXM	add2	False	136	6+3	9	794	True	9	2315	6	3	06	03	803.0	numbar	1512.0
AC5FF0SJI0RXM	add2	False	81	0+9	9	788	True	9	807	0	9	00	09	803.0	numbar	4.0
AC5FF0SJI0RXM	add2	False	82	4+5	9	781	True	9	789	4	5	04	05	803.0	numbar	-14.0
AC5FF0SJI0RXM	add2	False	17	7+2	9	467	True	9	1604	7	2	07	02	803.0	numbar	801.0
AC5FF0SJI0RXM	add2	False	18	3+6	9	644	True	9	825	3	6	03	06	803.0	numbar	22.0
AC5FF0SJI0RXM	add2	False	32	8+1	9	546	True	9	778	8	1	08	01	803.0	numbar	-25.0
AC5FF0SJI0RXM	add2	False	67	1+8	9	759	True	9	1412	1	8	01	08	803.0	numbar	609.0
AC5FF0SJI0RXM	add2	False	76	2+7	9	415	True	9	1295	2	7	02	07	803.0	numbar	492.0
AC5FF0SJI0RXM	add2	False	128	9+0	9	974	True	9	1048	9	0	09	00	803.0	numbar	245.0
AC5FF0SJI0RXM	add2	False	45	5+4	9	778	True	9	1486	5	4	05	04	803.0	numbar	683.0
AC5FF0SJI0RXM	add2	False	140	5+0	5	712	True	5	1201	5	0	05	00	874.6666666666666	numbar	326.33333333333337
AC5FF0SJI0RXM	add2	False	21	3+2	5	589	True	5	1013	3	2	03	02	874.6666666666666	numbar	138.33333333333337
AC5FF0SJI0RXM	add2	False	5	1+4	5	521	True	5	928	1	4	01	04	874.6666666666666	numbar	53.33333333333337
AC5FF0SJI0RXM	add2	False	92	2+3	5	437	True	5	1590	2	3	02	03	874.6666666666666	numbar	715.3333333333334
AC5FF0SJI0RXM	add2	False	121	0+5	5	459	True	5	1236	0	5	00	05	874.6666666666666	numbar	361.33333333333337
AC5FF0SJI0RXM	add2	False	55	4+1	5	942	True	5	1109	4	1	04	01	874.6666666666666	numbar	234.33333333333337
AC5FF0SJI0RXM	add2	False	41	4+3	7	582	True	7	1039	4	3	04	03	884.3333333333334	numbar	154.66666666666663
AC5FF0SJI0RXM	add2	False	70	7+0	7	814	True	7	2073	7	0	07	00	884.3333333333334	numbar	1188.6666666666665
AC5FF0SJI0RXM	add2	False	24	2+5	7	776	True	7	1017	2	5	02	05	884.3333333333334	numbar	132.66666666666663
AC5FF0SJI0RXM	add2	False	75	3+4	7	915	True	7	1138	3	4	03	04	884.3333333333334	numbar	253.66666666666663
AC5FF0SJI0RXM	add2	False	87	0+7	7	735	True	7	1399	0	7	00	07	884.3333333333334	numbar	514.6666666666666
AC5FF0SJI0RXM	add2	False	9	5+2	7	709	True	7	991	5	2	05	02	884.3333333333334	numbar	106.66666666666663
AC5FF0SJI0RXM	add2	False	99	6+1	7	779	True	7	1152	6	1	06	01	884.3333333333334	numbar	267.66666666666663
AC5FF0SJI0RXM	add2	False	26	1+6	7	819	True	7	917	1	6	01	06	884.3333333333334	numbar	32.66666666666663
AC5FF0SJI0RXM	add2	False	59	3+3	6	459	True	6	1371	3	3	03	03	876.3333333333334	numbar	494.66666666666663
AC5FF0SJI0RXM	add2	False	63	2+4	6	843	True	6	1156	2	4	02	04	876.3333333333334	numbar	279.66666666666663
AC5FF0SJI0RXM	add2	False	93	5+1	6	735	True	6	982	5	1	05	01	876.3333333333334	numbar	105.66666666666663
AC5FF0SJI0RXM	add2	False	27	6+0	6	907	True	6	1075	6	0	06	00	876.3333333333334	numbar	198.66666666666663
AC5FF0SJI0RXM	add2	False	11	4+2	6	938	True	6	1070	4	2	04	02	876.3333333333334	numbar	193.66666666666663
AC5FF0SJI0RXM	add2	False	135	0+6	6	680	True	6	1027	0	6	00	06	876.3333333333334	numbar	150.66666666666663
AC5FF0SJI0RXM	add2	False	37	1+5	6	942	True	6	1127	1	5	01	05	876.3333333333334	numbar	250.66666666666663
AC5FF0SJI0RXM	add2	False	101	1+3	4	490	True	4	1706	1	3	01	03	830.0	numbar	876.0
AC5FF0SJI0RXM	add2	False	115	0+4	4	506	True	4	1141	0	4	00	04	830.0	numbar	311.0
AC5FF0SJI0RXM	add2	False	49	2+2	4	816	True	4	961	2	2	02	02	830.0	numbar	131.0
AC5FF0SJI0RXM	add2	False	61	3+1	4	854	True	4	977	3	1	03	01	830.0	numbar	147.0
AC5FF0SJI0RXM	add2	False	89	4+0	4	810	True	4	972	4	0	04	00	830.0	numbar	142.0
A1WELSASLGM0P4	add2	False	10	0+14	14	507	True	14	935	0	14	00	14	1254.0	numbar	-319.0
A1WELSASLGM0P4	add2	False	104	1+13	14	943	True	14	1188	1	13	01	13	1254.0	numbar	-66.0
A1WELSASLGM0P4	add2	False	110	4+10	14	424	True	14	1376	4	10	04	10	1254.0	numbar	122.0
A1WELSASLGM0P4	add2	False	2	5+9	14	405	True	14	997	5	9	05	09	1254.0	numbar	-257.0
A1WELSASLGM0P4	add2	False	39	9+5	14	701	True	14	1579	9	5	09	05	1254.0	numbar	325.0
A1WELSASLGM0P4	add2	False	100	13+1	14	928	True	14	1114	13	1	13	01	1254.0	numbar	-140.0
A1WELSASLGM0P4	add2	False	124	12+2	14	805	True	14	969	12	2	12	02	1254.0	numbar	-285.0
A1WELSASLGM0P4	add2	False	52	8+6	14	695	True	14	1329	8	6	08	06	1254.0	numbar	75.0
A1WELSASLGM0P4	add2	False	58	2+12	14	626	True	14	1189	2	12	02	12	1254.0	numbar	-65.0
A1WELSASLGM0P4	add2	False	136	14+0	14	500	True	14	1201	14	0	14	00	1254.0	numbar	-53.0
A1WELSASLGM0P4	add2	False	137	10+4	14	734	True	14	1098	10	4	10	04	1254.0	numbar	-156.0
A1WELSASLGM0P4	add2	False	67	7+7	14	922	True	14	1297	7	7	07	07	1254.0	numbar	43.0
A1WELSASLGM0P4	add2	False	101	1+9	10	913	True	10	1234	1	9	01	09	1010.6666666666666	numbar	223.33333333333337
A1WELSASLGM0P4	add2	False	139	3+7	10	636	True	10	1173	3	7	03	07	1010.6666666666666	numbar	162.33333333333337
A1WELSASLGM0P4	add2	False	16	4+6	10	573	True	10	1688	4	6	04	06	1010.6666666666666	numbar	677.3333333333334
A1WELSASLGM0P4	add2	False	111	7+3	10	839	True	10	1084	7	3	07	03	1010.6666666666666	numbar	73.33333333333337
A1WELSASLGM0P4	add2	False	84	6+4	10	504	True	10	1169	6	4	06	04	1010.6666666666666	numbar	158.33333333333337
A1WELSASLGM0P4	add2	False	97	5+5	10	878	True	10	1129	5	5	05	05	1010.6666666666666	numbar	118.33333333333337
A1WELSASLGM0P4	add2	False	18	2+8	10	753	True	10	1438	2	8	02	08	1010.6666666666666	numbar	427.33333333333337
A1WELSASLGM0P4	add2	False	79	8+2	10	433	True	10	1344	8	2	08	02	1010.6666666666666	numbar	333.33333333333337
A1WELSASLGM0P4	add2	False	102	8+4	12	813	True	12	1089	8	4	08	04	719.0	numbar	370.0
A1WELSASLGM0P4	add2	False	129	11+1	12	419	True	12	1037	11	1	11	01	719.0	numbar	318.0
A1WELSASLGM0P4	add2	False	41	2+10	12	938	True	12	1030	2	10	02	10	719.0	numbar	311.0
A1WELSASLGM0P4	add2	False	72	4+8	12	777	True	12	1030	4	8	04	08	719.0	numbar	311.0
A1WELSASLGM0P4	add2	False	1	1+11	12	836	True	12	1021	1	11	01	11	719.0	numbar	302.0
A1WELSASLGM0P4	add2	False	112	10+2	12	764	True	12	957	10	2	10	02	719.0	numbar	238.0
A1WELSASLGM0P4	add2	False	122	12+0	12	422	True	12	1188	12	0	12	00	719.0	numbar	469.0
A1WELSASLGM0P4	add2	False	132	9+3	12	783	True	12	2076	9	3	09	03	719.0	numbar	1357.0
A1WELSASLGM0P4	add2	False	26	5+7	12	440	True	12	1007	5	7	05	07	719.0	numbar	288.0
A1WELSASLGM0P4	add2	False	36	3+9	12	577	True	12	1734	3	9	03	09	719.0	numbar	1015.0
A1WELSASLGM0P4	add2	False	7	0+12	12	861	True	12	881	0	12	00	12	719.0	numbar	162.0
A1WELSASLGM0P4	add2	False	75	6+6	12	417	True	12	1011	6	6	06	06	719.0	numbar	292.0
A1WELSASLGM0P4	add2	False	111	3+12	15	497	True	15	1111	3	12	03	12	751.0	numbar	360.0
A1WELSASLGM0P4	add2	False	12	2+13	15	774	True	15	2425	2	13	02	13	751.0	numbar	1674.0
A1WELSASLGM0P4	add2	False	123	11+4	15	533	True	15	1163	11	4	11	04	751.0	numbar	412.0
A1WELSASLGM0P4	add2	False	18	1+14	15	707	True	15	1399	1	14	01	14	751.0	numbar	648.0
A1WELSASLGM0P4	add2	False	78	4+11	15	470	True	15	1405	4	11	04	11	751.0	numbar	654.0
A1WELSASLGM0P4	add2	False	14	10+5	15	889	True	15	993	10	5	10	05	751.0	numbar	242.0
A1WELSASLGM0P4	add2	False	141	6+9	15	977	True	15	1524	6	9	06	09	751.0	numbar	773.0
A1WELSASLGM0P4	add2	False	34	7+8	15	673	True	15	1604	7	8	07	08	751.0	numbar	853.0
A1WELSASLGM0P4	add2	False	73	9+6	15	547	True	15	2001	9	6	09	06	751.0	numbar	1250.0
A1WELSASLGM0P4	add2	False	91	8+7	15	597	True	15	1510	8	7	08	07	751.0	numbar	759.0
A1WELSASLGM0P4	add2	False	106	5+10	15	502	True	15	1301	5	10	05	10	751.0	numbar	550.0
A1WELSASLGM0P4	add2	False	26	12+3	15	600	True	15	1131	12	3	12	03	751.0	numbar	380.0
A1WELSASLGM0P4	add2	False	49	15+0	15	400	True	15	1122	15	0	15	00	751.0	numbar	371.0
A1WELSASLGM0P4	add2	False	113	3+2	5	653	True	5	1036	3	2	03	02	1167.0	numbar	-131.0
A1WELSASLGM0P4	add2	False	75	5+0	5	688	True	5	1303	5	0	05	00	1167.0	numbar	136.0
A1WELSASLGM0P4	add2	False	125	1+4	5	657	True	5	1070	1	4	01	04	1167.0	numbar	-97.0
A1WELSASLGM0P4	add2	False	102	0+5	5	838	True	5	1051	0	5	00	05	1167.0	numbar	-116.0
A1WELSASLGM0P4	add2	False	115	4+1	5	886	True	5	1162	4	1	04	01	1167.0	numbar	-5.0
A1WELSASLGM0P4	add2	False	76	2+3	5	714	True	5	1024	2	3	02	03	1167.0	numbar	-143.0
A1WELSASLGM0P4	add2	False	114	2+11	13	717	True	13	1228	2	11	02	11	770.0	numbar	458.0
A1WELSASLGM0P4	add2	False	121	8+5	13	563	True	13	1674	8	5	08	05	770.0	numbar	904.0
A1WELSASLGM0P4	add2	False	57	11+2	13	417	True	13	1408	11	2	11	02	770.0	numbar	638.0
A1WELSASLGM0P4	add2	False	70	0+13	13	455	True	13	978	0	13	00	13	770.0	numbar	208.0
A1WELSASLGM0P4	add2	False	121	5+8	13	435	True	13	1733	5	8	05	08	770.0	numbar	963.0
A1WELSASLGM0P4	add2	False	50	12+1	13	585	True	13	1010	12	1	12	01	770.0	numbar	240.0
A1WELSASLGM0P4	add2	False	120	1+12	13	832	True	13	1239	1	12	01	12	770.0	numbar	469.0
A1WELSASLGM0P4	add2	False	116	9+0	9	827	True	9	1109	9	0	09	00	969.3333333333334	numbar	139.66666666666663
A1WELSASLGM0P4	add2	False	19	3+6	9	874	True	9	1338	3	6	03	06	969.3333333333334	numbar	368.66666666666663
A1WELSASLGM0P4	add2	False	32	1+8	9	789	True	9	1324	1	8	01	08	969.3333333333334	numbar	354.66666666666663
A1WELSASLGM0P4	add2	False	46	8+1	9	437	True	9	1618	8	1	08	01	969.3333333333334	numbar	648.6666666666666
A1WELSASLGM0P4	add2	False	129	6+3	9	982	True	9	1235	6	3	06	03	969.3333333333334	numbar	265.66666666666663
A1WELSASLGM0P4	add2	False	2	2+7	9	605	True	9	1247	2	7	02	07	969.3333333333334	numbar	277.66666666666663
A1WELSASLGM0P4	add2	False	76	4+5	9	771	True	9	1374	4	5	04	05	969.3333333333334	numbar	404.66666666666663
A1WELSASLGM0P4	add2	False	144	5+4	9	870	True	9	1046	5	4	05	04	969.3333333333334	numbar	76.66666666666663
A1WELSASLGM0P4	add2	False	25	0+9	9	979	True	9	1209	0	9	00	09	969.3333333333334	numbar	239.66666666666663
A1WELSASLGM0P4	add2	False	38	7+2	9	705	True	9	1242	7	2	07	02	969.3333333333334	numbar	272.66666666666663
A1WELSASLGM0P4	add2	False	118	14+2	16	821	True	16	1199	14	2	14	02	933.0	numbar	266.0
A1WELSASLGM0P4	add2	False	120	10+6	16	760	True	16	1053	10	6	10	06	933.0	numbar	120.0
A1WELSASLGM0P4	add2	False	44	5+11	16	405	True	16	1504	5	11	05	11	933.0	numbar	571.0
A1WELSASLGM0P4	add2	False	69	11+5	16	463	True	16	1420	11	5	11	05	933.0	numbar	487.0
A1WELSASLGM0P4	add2	False	103	0+16	16	918	True	16	1477	0	16	00	16	933.0	numbar	544.0
A1WELSASLGM0P4	add2	False	109	8+8	16	552	True	16	1263	8	8	08	08	933.0	numbar	330.0
A1WELSASLGM0P4	add2	False	120	1+15	16	977	True	16	1610	1	15	01	15	933.0	numbar	677.0
A1WELSASLGM0P4	add2	False	145	4+12	16	492	True	16	1353	4	12	04	12	933.0	numbar	420.0
A1WELSASLGM0P4	add2	False	31	13+3	16	597	True	16	2027	13	3	13	03	933.0	numbar	1094.0
A1WELSASLGM0P4	add2	False	53	3+13	16	788	True	16	1257	3	13	03	13	933.0	numbar	324.0
A1WELSASLGM0P4	add2	False	62	7+9	16	915	True	16	2187	7	9	07	09	933.0	numbar	1254.0
A1WELSASLGM0P4	add2	False	92	2+14	16	443	True	16	1395	2	14	02	14	933.0	numbar	462.0
A1WELSASLGM0P4	add2	False	133	9+7	16	843	True	16	1844	9	7	09	07	933.0	numbar	911.0
A1WELSASLGM0P4	add2	False	21	12+4	16	827	True	16	1614	12	4	12	04	933.0	numbar	681.0
A1WELSASLGM0P4	add2	False	66	6+10	16	898	True	16	1397	6	10	06	10	933.0	numbar	464.0
A1WELSASLGM0P4	add2	False	119	5+3	8	842	True	8	1131	5	3	05	03	1041.6666666666667	numbar	89.33333333333326
A1WELSASLGM0P4	add2	False	136	7+1	8	767	True	8	1270	7	1	07	01	1041.6666666666667	numbar	228.33333333333326
A1WELSASLGM0P4	add2	False	37	6+2	8	974	True	8	1278	6	2	06	02	1041.6666666666667	numbar	236.33333333333326
A1WELSASLGM0P4	add2	False	82	0+8	8	655	True	8	1153	0	8	00	08	1041.6666666666667	numbar	111.33333333333326
A1WELSASLGM0P4	add2	False	86	8+0	8	618	True	8	1160	8	0	08	00	1041.6666666666667	numbar	118.33333333333326
A1WELSASLGM0P4	add2	False	103	3+5	8	948	True	8	1189	3	5	03	05	1041.6666666666667	numbar	147.33333333333326
A1WELSASLGM0P4	add2	False	46	4+4	8	705	True	8	1110	4	4	04	04	1041.6666666666667	numbar	68.33333333333326
A1WELSASLGM0P4	add2	False	72	1+7	8	844	True	8	1674	1	7	01	07	1041.6666666666667	numbar	632.3333333333333
A1WELSASLGM0P4	add2	False	98	2+6	8	811	True	8	1260	2	6	02	06	1041.6666666666667	numbar	218.33333333333326
A1WELSASLGM0P4	add2	False	124	16+2	18	423	True	18	1428	16	2	16	02	747.0	numbar	681.0
A1WELSASLGM0P4	add2	False	142	18+0	18	890	True	18	1093	18	0	18	00	747.0	numbar	346.0
A1WELSASLGM0P4	add2	False	143	8+10	18	613	True	18	1173	8	10	08	10	747.0	numbar	426.0
A1WELSASLGM0P4	add2	False	26	11+7	18	910	True	18	1883	11	7	11	07	747.0	numbar	1136.0
A1WELSASLGM0P4	add2	False	79	15+3	18	614	True	18	1177	15	3	15	03	747.0	numbar	430.0
A1WELSASLGM0P4	add2	False	85	5+13	18	816	True	18	1995	5	13	05	13	747.0	numbar	1248.0
A1WELSASLGM0P4	add2	False	89	1+17	18	930	True	18	1876	1	17	01	17	747.0	numbar	1129.0
A1WELSASLGM0P4	add2	False	99	6+12	18	709	True	18	1406	6	12	06	12	747.0	numbar	659.0
A1WELSASLGM0P4	add2	False	116	7+11	18	413	True	18	1601	7	11	07	11	747.0	numbar	854.0
A1WELSASLGM0P4	add2	False	139	9+9	18	563	True	18	1180	9	9	09	09	747.0	numbar	433.0
A1WELSASLGM0P4	add2	False	21	17+1	18	686	True	18	1375	17	1	17	01	747.0	numbar	628.0
A1WELSASLGM0P4	add2	False	40	2+16	18	423	True	18	1626	2	16	02	16	747.0	numbar	879.0
A1WELSASLGM0P4	add2	False	74	3+15	18	715	True	18	1378	3	15	03	15	747.0	numbar	631.0
A1WELSASLGM0P4	add2	False	93	0+18	18	691	True	18	1050	0	18	00	18	747.0	numbar	303.0
A1WELSASLGM0P4	add2	False	111	4+14	18	574	True	18	1182	4	14	04	14	747.0	numbar	435.0
A1WELSASLGM0P4	add2	False	30	12+6	18	714	True	18	1243	12	6	12	06	747.0	numbar	496.0
A1WELSASLGM0P4	add2	False	82	13+5	18	854	True	18	1594	13	5	13	05	747.0	numbar	847.0
A1WELSASLGM0P4	add2	False	128	0+20	20	813	True	20	2293	0	20	00	20	980.6666666666666	numbar	1312.3333333333335
A1WELSASLGM0P4	add2	False	145	8+12	20	968	True	20	1190	8	12	08	12	980.6666666666666	numbar	209.33333333333337
A1WELSASLGM0P4	add2	False	20	14+6	20	752	True	20	1390	14	6	14	06	980.6666666666666	numbar	409.33333333333337
A1WELSASLGM0P4	add2	False	27	9+11	20	516	True	20	2044	9	11	09	11	980.6666666666666	numbar	1063.3333333333335
A1WELSASLGM0P4	add2	False	29	16+4	20	524	True	20	1196	16	4	16	04	980.6666666666666	numbar	215.33333333333337
A1WELSASLGM0P4	add2	False	30	1+19	20	699	True	20	1338	1	19	01	19	980.6666666666666	numbar	357.33333333333337
A1WELSASLGM0P4	add2	False	74	17+3	20	682	True	20	1371	17	3	17	03	980.6666666666666	numbar	390.33333333333337
A1WELSASLGM0P4	add2	False	87	4+16	20	750	True	20	1291	4	16	04	16	980.6666666666666	numbar	310.33333333333337
A1WELSASLGM0P4	add2	False	98	10+10	20	451	True	20	1327	10	10	10	10	980.6666666666666	numbar	346.33333333333337
A1WELSASLGM0P4	add2	False	108	15+5	20	911	True	20	1796	15	5	15	05	980.6666666666666	numbar	815.3333333333334
A1WELSASLGM0P4	add2	False	123	3+17	20	760	True	20	1308	3	17	03	17	980.6666666666666	numbar	327.33333333333337
A1WELSASLGM0P4	add2	False	17	13+7	20	822	True	20	1484	13	7	13	07	980.6666666666666	numbar	503.33333333333337
A1WELSASLGM0P4	add2	False	30	7+13	20	681	True	20	1308	7	13	07	13	980.6666666666666	numbar	327.33333333333337
A1WELSASLGM0P4	add2	False	45	18+2	20	575	True	20	1564	18	2	18	02	980.6666666666666	numbar	583.3333333333334
A1WELSASLGM0P4	add2	False	64	11+9	20	565	True	20	1421	11	9	11	09	980.6666666666666	numbar	440.33333333333337
A1WELSASLGM0P4	add2	False	70	12+8	20	654	True	20	1121	12	8	12	08	980.6666666666666	numbar	140.33333333333337
A1WELSASLGM0P4	add2	False	79	19+1	20	633	True	20	1761	19	1	19	01	980.6666666666666	numbar	780.3333333333334
A1WELSASLGM0P4	add2	False	110	5+15	20	536	True	20	1247	5	15	05	15	980.6666666666666	numbar	266.33333333333337
A1WELSASLGM0P4	add2	False	128	6+14	20	633	True	20	1645	6	14	06	14	980.6666666666666	numbar	664.3333333333334
A1WELSASLGM0P4	add2	False	2	2+18	20	890	True	20	1436	2	18	02	18	980.6666666666666	numbar	455.33333333333337
A1WELSASLGM0P4	add2	False	32	20+0	20	696	True	20	1340	20	0	20	00	980.6666666666666	numbar	359.33333333333337
A1WELSASLGM0P4	add2	False	131	16+1	17	720	True	17	1287	16	1	16	01	772.3333333333334	numbar	514.6666666666666
A1WELSASLGM0P4	add2	False	60	7+10	17	869	True	17	1139	7	10	07	10	772.3333333333334	numbar	366.66666666666663
A1WELSASLGM0P4	add2	False	115	12+5	17	452	True	17	1388	12	5	12	05	772.3333333333334	numbar	615.6666666666666
A1WELSASLGM0P4	add2	False	134	4+13	17	814	True	17	2630	4	13	04	13	772.3333333333334	numbar	1857.6666666666665
A1WELSASLGM0P4	add2	False	140	1+16	17	442	True	17	1117	1	16	01	16	772.3333333333334	numbar	344.66666666666663
A1WELSASLGM0P4	add2	False	35	11+6	17	512	True	17	1780	11	6	11	06	772.3333333333334	numbar	1007.6666666666666
A1WELSASLGM0P4	add2	False	41	2+15	17	794	True	17	2000	2	15	02	15	772.3333333333334	numbar	1227.6666666666665
A1WELSASLGM0P4	add2	False	108	9+8	17	576	True	17	2057	9	8	09	08	772.3333333333334	numbar	1284.6666666666665
A1WELSASLGM0P4	add2	False	112	14+3	17	423	True	17	1223	14	3	14	03	772.3333333333334	numbar	450.66666666666663
A1WELSASLGM0P4	add2	False	113	10+7	17	993	True	17	1003	10	7	10	07	772.3333333333334	numbar	230.66666666666663
A1WELSASLGM0P4	add2	False	47	5+12	17	944	True	17	1654	5	12	05	12	772.3333333333334	numbar	881.6666666666666
A1WELSASLGM0P4	add2	False	5	17+0	17	924	True	17	1580	17	0	17	00	772.3333333333334	numbar	807.6666666666666
A1WELSASLGM0P4	add2	False	61	3+14	17	889	True	17	1563	3	14	03	14	772.3333333333334	numbar	790.6666666666666
A1WELSASLGM0P4	add2	False	65	6+11	17	402	True	17	1442	6	11	06	11	772.3333333333334	numbar	669.6666666666666
A1WELSASLGM0P4	add2	False	86	15+2	17	942	True	17	1296	15	2	15	02	772.3333333333334	numbar	523.6666666666666
A1WELSASLGM0P4	add2	False	9	0+17	17	606	True	17	1196	0	17	00	17	772.3333333333334	numbar	423.66666666666663
A1WELSASLGM0P4	add2	False	146	3+3	6	730	True	6	1088	3	3	03	03	1135.3333333333333	numbar	-47.33333333333326
A1WELSASLGM0P4	add2	False	31	6+0	6	930	True	6	1332	6	0	06	00	1135.3333333333333	numbar	196.66666666666674
A1WELSASLGM0P4	add2	False	77	1+5	6	705	True	6	1146	1	5	01	05	1135.3333333333333	numbar	10.666666666666742
A1WELSASLGM0P4	add2	False	24	0+6	6	568	True	6	1362	0	6	00	06	1135.3333333333333	numbar	226.66666666666674
A1WELSASLGM0P4	add2	False	4	2+4	6	882	True	6	1239	2	4	02	04	1135.3333333333333	numbar	103.66666666666674
A1WELSASLGM0P4	add2	False	55	5+1	6	532	True	6	1189	5	1	05	01	1135.3333333333333	numbar	53.66666666666674
A1WELSASLGM0P4	add2	False	57	4+2	6	672	True	6	1337	4	2	04	02	1135.3333333333333	numbar	201.66666666666674
A1WELSASLGM0P4	add2	False	28	8+3	11	657	True	11	2003	8	3	08	03	624.0	numbar	1379.0
A1WELSASLGM0P4	add2	False	128	7+4	11	525	True	11	2503	7	4	07	04	624.0	numbar	1879.0
A1WELSASLGM0P4	add2	False	27	3+8	11	730	True	11	1702	3	8	03	08	624.0	numbar	1078.0
A1WELSASLGM0P4	add2	False	29	9+2	11	978	True	11	897	9	2	09	02	624.0	numbar	273.0
A1WELSASLGM0P4	add2	False	48	0+11	11	971	True	11	1026	0	11	00	11	624.0	numbar	402.0
A1WELSASLGM0P4	add2	False	49	4+7	11	718	True	11	1783	4	7	04	07	624.0	numbar	1159.0
A1WELSASLGM0P4	add2	False	121	5+6	11	822	True	11	911	5	6	05	06	624.0	numbar	287.0
A1WELSASLGM0P4	add2	False	50	2+9	11	748	True	11	1049	2	9	02	09	624.0	numbar	425.0
A1WELSASLGM0P4	add2	False	54	11+0	11	430	True	11	877	11	0	11	00	624.0	numbar	253.0
A1WELSASLGM0P4	add2	False	83	6+5	11	710	True	11	882	6	5	06	05	624.0	numbar	258.0
A1WELSASLGM0P4	add2	False	91	10+1	11	947	True	11	997	10	1	10	01	624.0	numbar	373.0
A1WELSASLGM0P4	add2	False	34	1+2	3	758	True	3	950	1	2	01	02	902.3333333333334	numbar	47.66666666666663
A1WELSASLGM0P4	add2	False	126	2+1	3	745	True	3	948	2	1	02	01	902.3333333333334	numbar	45.66666666666663
A1WELSASLGM0P4	add2	False	51	0+3	3	764	True	3	922	0	3	00	03	902.3333333333334	numbar	19.66666666666663
A1WELSASLGM0P4	add2	False	31	3+0	3	574	True	3	1030	3	0	03	00	902.3333333333334	numbar	127.66666666666663
A1WELSASLGM0P4	add2	False	35	1+0	1	796	True	1	1021	1	0	01	00	694.3333333333334	numbar	326.66666666666663
A1WELSASLGM0P4	add2	False	63	0+1	1	902	True	1	832	0	1	00	01	694.3333333333334	numbar	137.66666666666663
A1WELSASLGM0P4	add2	False	36	3+16	19	415	True	19	1713	3	16	03	16	742.0	numbar	971.0
A1WELSASLGM0P4	add2	False	97	7+12	19	502	True	19	2248	7	12	07	12	742.0	numbar	1506.0
A1WELSASLGM0P4	add2	False	10	0+19	19	854	True	19	1023	0	19	00	19	742.0	numbar	281.0
A1WELSASLGM0P4	add2	False	11	2+17	19	487	True	19	1130	2	17	02	17	742.0	numbar	388.0
A1WELSASLGM0P4	add2	False	131	11+8	19	896	True	19	924	11	8	11	08	742.0	numbar	182.0
A1WELSASLGM0P4	add2	False	56	8+11	19	831	True	19	1834	8	11	08	11	742.0	numbar	1092.0
A1WELSASLGM0P4	add2	False	94	12+7	19	616	True	19	1196	12	7	12	07	742.0	numbar	454.0
A1WELSASLGM0P4	add2	False	100	4+15	19	401	True	19	1195	4	15	04	15	742.0	numbar	453.0
A1WELSASLGM0P4	add2	False	104	9+10	19	650	True	19	1132	9	10	09	10	742.0	numbar	390.0
A1WELSASLGM0P4	add2	False	122	13+6	19	890	True	19	1164	13	6	13	06	742.0	numbar	422.0
A1WELSASLGM0P4	add2	False	123	17+2	19	459	True	19	918	17	2	17	02	742.0	numbar	176.0
A1WELSASLGM0P4	add2	False	124	19+0	19	408	True	19	1463	19	0	19	00	742.0	numbar	721.0
A1WELSASLGM0P4	add2	False	139	1+18	19	524	True	19	1485	1	18	01	18	742.0	numbar	743.0
A1WELSASLGM0P4	add2	False	22	14+5	19	467	True	19	1259	14	5	14	05	742.0	numbar	517.0
A1WELSASLGM0P4	add2	False	29	10+9	19	768	True	19	1175	10	9	10	09	742.0	numbar	433.0
A1WELSASLGM0P4	add2	False	34	5+14	19	567	True	19	1390	5	14	05	14	742.0	numbar	648.0
A1WELSASLGM0P4	add2	False	43	0+4	4	922	True	4	1114	0	4	00	04	967.3333333333334	numbar	146.66666666666663
A1WELSASLGM0P4	add2	False	5	1+3	4	635	True	4	1085	1	3	01	03	967.3333333333334	numbar	117.66666666666663
A1WELSASLGM0P4	add2	False	52	2+2	4	914	True	4	1061	2	2	02	02	967.3333333333334	numbar	93.66666666666663
A1WELSASLGM0P4	add2	False	68	3+1	4	649	True	4	1108	3	1	03	01	967.3333333333334	numbar	140.66666666666663
A1WELSASLGM0P4	add2	False	93	4+0	4	498	True	4	1136	4	0	04	00	967.3333333333334	numbar	168.66666666666663
A1WELSASLGM0P4	add2	False	105	3+4	7	569	True	7	1200	3	4	03	04	914.3333333333334	numbar	285.66666666666663
A1WELSASLGM0P4	add2	False	113	1+6	7	882	True	7	1188	1	6	01	06	914.3333333333334	numbar	273.66666666666663
A1WELSASLGM0P4	add2	False	67	6+1	7	675	True	7	1347	6	1	06	01	914.3333333333334	numbar	432.66666666666663
A1WELSASLGM0P4	add2	False	81	0+7	7	651	True	7	1142	0	7	00	07	914.3333333333334	numbar	227.66666666666663
A1WELSASLGM0P4	add2	False	11	7+0	7	635	True	7	1433	7	0	07	00	914.3333333333334	numbar	518.6666666666666
A1WELSASLGM0P4	add2	False	118	5+2	7	803	True	7	1222	5	2	05	02	914.3333333333334	numbar	307.66666666666663
A1WELSASLGM0P4	add2	False	143	4+3	7	786	True	7	1254	4	3	04	03	914.3333333333334	numbar	339.66666666666663
A1WELSASLGM0P4	add2	False	77	2+5	7	450	True	7	1291	2	5	02	05	914.3333333333334	numbar	376.66666666666663
A1WELSASLGM0P4	add2	False	83	0+0	0	653	True	0	1037	0	0	00	00	974.6666666666666	numbar	62.33333333333337
A1WELSASLGM0P4	add2	False	126	1+1	2	665	True	2	1005	1	1	01	01	754.0	numbar	251.0
A1WELSASLGM0P4	add2	False	14	2+0	2	817	True	2	1063	2	0	02	00	754.0	numbar	309.0
A1WELSASLGM0P4	add2	False	90	0+2	2	709	True	2	905	0	2	00	02	754.0	numbar	151.0
A37DKV7XQI7N5J	add2	False	0	0+19	19	936	True	19	781	0	19	00	19	550.0	numpad	231.0
A37DKV7XQI7N5J	add2	False	114	19+0	19	750	True	19	629	19	0	19	00	550.0	numpad	79.0
A37DKV7XQI7N5J	add2	False	17	3+16	19	514	True	19	877	3	16	03	16	550.0	numpad	327.0
A37DKV7XQI7N5J	add2	False	21	17+2	19	871	True	19	874	17	2	17	02	550.0	numpad	324.0
A37DKV7XQI7N5J	add2	False	38	10+9	19	416	True	19	675	10	9	10	09	550.0	numpad	125.0
A37DKV7XQI7N5J	add2	False	49	16+3	19	860	True	19	763	16	3	16	03	550.0	numpad	213.0
A37DKV7XQI7N5J	add2	False	56	7+12	19	924	True	19	711	7	12	07	12	550.0	numpad	161.0
A37DKV7XQI7N5J	add2	False	86	5+14	19	785	True	19	807	5	14	05	14	550.0	numpad	257.0
A37DKV7XQI7N5J	add2	False	130	18+1	19	795	True	19	744	18	1	18	01	550.0	numpad	194.0
A37DKV7XQI7N5J	add2	False	133	8+11	19	429	True	19	792	8	11	08	11	550.0	numpad	242.0
A37DKV7XQI7N5J	add2	False	43	2+17	19	719	True	19	740	2	17	02	17	550.0	numpad	190.0
A37DKV7XQI7N5J	add2	False	64	1+18	19	674	True	19	790	1	18	01	18	550.0	numpad	240.0
A37DKV7XQI7N5J	add2	False	119	9+10	19	802	True	19	682	9	10	09	10	550.0	numpad	132.0
A37DKV7XQI7N5J	add2	False	130	15+4	19	561	True	19	1103	15	4	15	04	550.0	numpad	553.0
A37DKV7XQI7N5J	add2	False	34	14+5	19	990	True	19	688	14	5	14	05	550.0	numpad	138.0
A37DKV7XQI7N5J	add2	False	55	4+15	19	811	True	19	944	4	15	04	15	550.0	numpad	394.0
A37DKV7XQI7N5J	add2	False	94	6+13	19	447	True	19	781	6	13	06	13	550.0	numpad	231.0
A37DKV7XQI7N5J	add2	False	10	3+14	17	712	True	17	911	3	14	03	14	472.0	numpad	439.0
A37DKV7XQI7N5J	add2	False	109	7+10	17	400	True	17	782	7	10	07	10	472.0	numpad	310.0
A37DKV7XQI7N5J	add2	False	121	13+4	17	500	True	17	825	13	4	13	04	472.0	numpad	353.0
A37DKV7XQI7N5J	add2	False	126	1+16	17	607	True	17	719	1	16	01	16	472.0	numpad	247.0
A37DKV7XQI7N5J	add2	False	2	14+3	17	513	True	17	678	14	3	14	03	472.0	numpad	206.0
A37DKV7XQI7N5J	add2	False	3	6+11	17	657	True	17	758	6	11	06	11	472.0	numpad	286.0
A37DKV7XQI7N5J	add2	False	39	12+5	17	744	True	17	1084	12	5	12	05	472.0	numpad	612.0
A37DKV7XQI7N5J	add2	False	50	11+6	17	495	True	17	783	11	6	11	06	472.0	numpad	311.0
A37DKV7XQI7N5J	add2	False	89	5+12	17	755	True	17	695	5	12	05	12	472.0	numpad	223.0
A37DKV7XQI7N5J	add2	False	134	8+9	17	617	True	17	742	8	9	08	09	472.0	numpad	270.0
A37DKV7XQI7N5J	add2	False	30	4+13	17	985	True	17	787	4	13	04	13	472.0	numpad	315.0
A37DKV7XQI7N5J	add2	False	39	15+2	17	673	True	17	651	15	2	15	02	472.0	numpad	179.0
A37DKV7XQI7N5J	add2	False	65	16+1	17	517	True	17	811	16	1	16	01	472.0	numpad	339.0
A37DKV7XQI7N5J	add2	False	118	10+7	17	869	True	17	732	10	7	10	07	472.0	numpad	260.0
A37DKV7XQI7N5J	add2	False	15	17+0	17	424	True	17	696	17	0	17	00	472.0	numpad	224.0
A37DKV7XQI7N5J	add2	False	29	9+8	17	699	True	17	786	9	8	09	08	472.0	numpad	314.0
A37DKV7XQI7N5J	add2	False	71	0+17	17	733	True	17	647	0	17	00	17	472.0	numpad	175.0
A37DKV7XQI7N5J	add2	False	100	3+15	18	875	True	18	810	3	15	03	15	513.3333333333334	numpad	296.66666666666663
A37DKV7XQI7N5J	add2	False	110	13+5	18	992	True	18	814	13	5	13	05	513.3333333333334	numpad	300.66666666666663
A37DKV7XQI7N5J	add2	False	115	0+18	18	674	True	18	659	0	18	00	18	513.3333333333334	numpad	145.66666666666663
A37DKV7XQI7N5J	add2	False	26	10+8	18	987	True	18	835	10	8	10	08	513.3333333333334	numpad	321.66666666666663
A37DKV7XQI7N5J	add2	False	27	6+12	18	438	True	18	820	6	12	06	12	513.3333333333334	numpad	306.66666666666663
A37DKV7XQI7N5J	add2	False	114	18+0	18	557	True	18	801	18	0	18	00	513.3333333333334	numpad	287.66666666666663
A37DKV7XQI7N5J	add2	False	12	1+17	18	862	True	18	724	1	17	01	17	513.3333333333334	numpad	210.66666666666663
A37DKV7XQI7N5J	add2	False	120	16+2	18	496	True	18	741	16	2	16	02	513.3333333333334	numpad	227.66666666666663
A37DKV7XQI7N5J	add2	False	121	11+7	18	791	True	18	905	11	7	11	07	513.3333333333334	numpad	391.66666666666663
A37DKV7XQI7N5J	add2	False	16	8+10	18	973	True	18	673	8	10	08	10	513.3333333333334	numpad	159.66666666666663
A37DKV7XQI7N5J	add2	False	27	15+3	18	406	True	18	949	15	3	15	03	513.3333333333334	numpad	435.66666666666663
A37DKV7XQI7N5J	add2	False	68	5+13	18	817	True	18	707	5	13	05	13	513.3333333333334	numpad	193.66666666666663
A37DKV7XQI7N5J	add2	False	73	14+4	18	405	True	18	787	14	4	14	04	513.3333333333334	numpad	273.66666666666663
A37DKV7XQI7N5J	add2	False	111	7+11	18	442	True	18	787	7	11	07	11	513.3333333333334	numpad	273.66666666666663
A37DKV7XQI7N5J	add2	False	129	9+9	18	923	True	18	795	9	9	09	09	513.3333333333334	numpad	281.66666666666663
A37DKV7XQI7N5J	add2	False	136	4+14	18	668	True	18	711	4	14	04	14	513.3333333333334	numpad	197.66666666666663
A37DKV7XQI7N5J	add2	False	14	12+6	18	726	True	18	997	12	6	12	06	513.3333333333334	numpad	483.66666666666663
A37DKV7XQI7N5J	add2	False	27	17+1	18	940	True	18	666	17	1	17	01	513.3333333333334	numpad	152.66666666666663
A37DKV7XQI7N5J	add2	False	59	2+16	18	499	True	18	799	2	16	02	16	513.3333333333334	numpad	285.66666666666663
A37DKV7XQI7N5J	add2	False	101	11+2	13	720	True	13	1077	11	2	11	02	517.3333333333334	numpad	559.6666666666666
A37DKV7XQI7N5J	add2	False	141	6+7	13	726	True	13	724	6	7	06	07	517.3333333333334	numpad	206.66666666666663
A37DKV7XQI7N5J	add2	False	67	10+3	13	768	True	13	756	10	3	10	03	517.3333333333334	numpad	238.66666666666663
A37DKV7XQI7N5J	add2	False	115	2+11	13	885	True	13	876	2	11	02	11	517.3333333333334	numpad	358.66666666666663
A37DKV7XQI7N5J	add2	False	136	13+0	13	708	True	13	697	13	0	13	00	517.3333333333334	numpad	179.66666666666663
A37DKV7XQI7N5J	add2	False	25	7+6	13	402	True	13	820	7	6	07	06	517.3333333333334	numpad	302.66666666666663
A37DKV7XQI7N5J	add2	False	72	8+5	13	547	True	13	1089	8	5	08	05	517.3333333333334	numpad	571.6666666666666
A37DKV7XQI7N5J	add2	False	76	3+10	13	540	True	13	741	3	10	03	10	517.3333333333334	numpad	223.66666666666663
A37DKV7XQI7N5J	add2	False	4	0+13	13	952	True	13	698	0	13	00	13	517.3333333333334	numpad	180.66666666666663
A37DKV7XQI7N5J	add2	False	42	1+12	13	433	True	13	779	1	12	01	12	517.3333333333334	numpad	261.66666666666663
A37DKV7XQI7N5J	add2	False	76	4+9	13	988	True	13	765	4	9	04	09	517.3333333333334	numpad	247.66666666666663
A37DKV7XQI7N5J	add2	False	102	0+4	4	999	True	4	698	0	4	00	04	600.3333333333334	numpad	97.66666666666663
A37DKV7XQI7N5J	add2	False	55	4+0	4	744	True	4	739	4	0	04	00	600.3333333333334	numpad	138.66666666666663
A37DKV7XQI7N5J	add2	False	113	3+1	4	599	True	4	734	3	1	03	01	600.3333333333334	numpad	133.66666666666663
A37DKV7XQI7N5J	add2	False	31	1+3	4	683	True	4	813	1	3	01	03	600.3333333333334	numpad	212.66666666666663
A37DKV7XQI7N5J	add2	False	79	2+2	4	474	True	4	787	2	2	02	02	600.3333333333334	numpad	186.66666666666663
A37DKV7XQI7N5J	add2	False	104	4+12	16	534	True	16	865	4	12	04	12	526.6666666666666	numpad	338.33333333333337
A37DKV7XQI7N5J	add2	False	138	15+1	16	941	True	16	768	15	1	15	01	526.6666666666666	numpad	241.33333333333337
A37DKV7XQI7N5J	add2	False	140	3+13	16	870	True	16	807	3	13	03	13	526.6666666666666	numpad	280.33333333333337
A37DKV7XQI7N5J	add2	False	48	13+3	16	973	True	16	962	13	3	13	03	526.6666666666666	numpad	435.33333333333337
A37DKV7XQI7N5J	add2	False	54	9+7	16	495	True	16	863	9	7	09	07	526.6666666666666	numpad	336.33333333333337
A37DKV7XQI7N5J	add2	False	69	7+9	16	794	True	16	793	7	9	07	09	526.6666666666666	numpad	266.33333333333337
A37DKV7XQI7N5J	add2	False	142	16+0	16	641	True	16	618	16	0	16	00	526.6666666666666	numpad	91.33333333333337
A37DKV7XQI7N5J	add2	False	20	14+2	16	789	True	16	896	14	2	14	02	526.6666666666666	numpad	369.33333333333337
A37DKV7XQI7N5J	add2	False	36	5+11	16	735	True	16	724	5	11	05	11	526.6666666666666	numpad	197.33333333333337
A37DKV7XQI7N5J	add2	False	55	6+10	16	634	True	16	847	6	10	06	10	526.6666666666666	numpad	320.33333333333337
A37DKV7XQI7N5J	add2	False	61	1+15	16	481	True	16	801	1	15	01	15	526.6666666666666	numpad	274.33333333333337
A37DKV7XQI7N5J	add2	False	106	8+8	16	434	True	16	749	8	8	08	08	526.6666666666666	numpad	222.33333333333337
A37DKV7XQI7N5J	add2	False	13	10+6	16	798	True	16	724	10	6	10	06	526.6666666666666	numpad	197.33333333333337
A37DKV7XQI7N5J	add2	False	36	2+14	16	851	True	16	793	2	14	02	14	526.6666666666666	numpad	266.33333333333337
A37DKV7XQI7N5J	add2	False	48	12+4	16	699	True	16	850	12	4	12	04	526.6666666666666	numpad	323.33333333333337
A37DKV7XQI7N5J	add2	False	80	11+5	16	911	True	16	831	11	5	11	05	526.6666666666666	numpad	304.33333333333337
A37DKV7XQI7N5J	add2	False	87	0+16	16	829	True	16	662	0	16	00	16	526.6666666666666	numpad	135.33333333333337
A37DKV7XQI7N5J	add2	False	105	3+12	15	535	True	15	749	3	12	03	12	513.3333333333334	numpad	235.66666666666663
A37DKV7XQI7N5J	add2	False	146	4+11	15	998	True	15	952	4	11	04	11	513.3333333333334	numpad	438.66666666666663
A37DKV7XQI7N5J	add2	False	25	5+10	15	958	True	15	686	5	10	05	10	513.3333333333334	numpad	172.66666666666663
A37DKV7XQI7N5J	add2	False	64	7+8	15	472	True	15	741	7	8	07	08	513.3333333333334	numpad	227.66666666666663
A37DKV7XQI7N5J	add2	False	74	15+0	15	790	True	15	693	15	0	15	00	513.3333333333334	numpad	179.66666666666663
A37DKV7XQI7N5J	add2	False	84	12+3	15	451	True	15	730	12	3	12	03	513.3333333333334	numpad	216.66666666666663
A37DKV7XQI7N5J	add2	False	100	10+5	15	820	True	15	908	10	5	10	05	513.3333333333334	numpad	394.66666666666663
A37DKV7XQI7N5J	add2	False	11	14+1	15	410	True	15	870	14	1	14	01	513.3333333333334	numpad	356.66666666666663
A37DKV7XQI7N5J	add2	False	143	2+13	15	770	True	15	812	2	13	02	13	513.3333333333334	numpad	298.66666666666663
A37DKV7XQI7N5J	add2	False	145	13+2	15	984	True	15	683	13	2	13	02	513.3333333333334	numpad	169.66666666666663
A37DKV7XQI7N5J	add2	False	121	8+7	15	628	True	15	731	8	7	08	07	513.3333333333334	numpad	217.66666666666663
A37DKV7XQI7N5J	add2	False	126	0+15	15	937	True	15	651	0	15	00	15	513.3333333333334	numpad	137.66666666666663
A37DKV7XQI7N5J	add2	False	132	1+14	15	645	True	15	858	1	14	01	14	513.3333333333334	numpad	344.66666666666663
A37DKV7XQI7N5J	add2	False	107	10+10	20	745	True	20	729	10	10	10	10	597.6666666666666	numpad	131.33333333333337
A37DKV7XQI7N5J	add2	False	127	2+18	20	582	True	20	813	2	18	02	18	597.6666666666666	numpad	215.33333333333337
A37DKV7XQI7N5J	add2	False	16	8+12	20	655	True	20	1064	8	12	08	12	597.6666666666666	numpad	466.33333333333337
A37DKV7XQI7N5J	add2	False	43	9+11	20	712	True	20	1258	9	11	09	11	597.6666666666666	numpad	660.3333333333334
A37DKV7XQI7N5J	add2	False	5	7+13	20	855	True	20	861	7	13	07	13	597.6666666666666	numpad	263.33333333333337
A37DKV7XQI7N5J	add2	False	51	11+9	20	488	True	20	789	11	9	11	09	597.6666666666666	numpad	191.33333333333337
A37DKV7XQI7N5J	add2	False	73	12+8	20	416	True	20	1049	12	8	12	08	597.6666666666666	numpad	451.33333333333337
A37DKV7XQI7N5J	add2	False	106	1+19	20	994	True	20	902	1	19	01	19	597.6666666666666	numpad	304.33333333333337
A37DKV7XQI7N5J	add2	False	107	4+16	20	816	True	20	1086	4	16	04	16	597.6666666666666	numpad	488.33333333333337
A37DKV7XQI7N5J	add2	False	122	18+2	20	448	True	20	840	18	2	18	02	597.6666666666666	numpad	242.33333333333337
A37DKV7XQI7N5J	add2	False	123	19+1	20	905	True	20	752	19	1	19	01	597.6666666666666	numpad	154.33333333333337
A37DKV7XQI7N5J	add2	False	38	13+7	20	616	True	20	783	13	7	13	07	597.6666666666666	numpad	185.33333333333337
A37DKV7XQI7N5J	add2	False	56	3+17	20	656	True	20	736	3	17	03	17	597.6666666666666	numpad	138.33333333333337
A37DKV7XQI7N5J	add2	False	62	14+6	20	425	True	20	884	14	6	14	06	597.6666666666666	numpad	286.33333333333337
A37DKV7XQI7N5J	add2	False	134	6+14	20	663	True	20	861	6	14	06	14	597.6666666666666	numpad	263.33333333333337
A37DKV7XQI7N5J	add2	False	26	0+20	20	965	True	20	732	0	20	00	20	597.6666666666666	numpad	134.33333333333337
A37DKV7XQI7N5J	add2	False	5	16+4	20	864	True	20	774	16	4	16	04	597.6666666666666	numpad	176.33333333333337
A37DKV7XQI7N5J	add2	False	56	15+5	20	628	True	20	811	15	5	15	05	597.6666666666666	numpad	213.33333333333337
A37DKV7XQI7N5J	add2	False	60	20+0	20	469	True	20	778	20	0	20	00	597.6666666666666	numpad	180.33333333333337
A37DKV7XQI7N5J	add2	False	7	17+3	20	471	True	20	784	17	3	17	03	597.6666666666666	numpad	186.33333333333337
A37DKV7XQI7N5J	add2	False	8	5+15	20	776	True	20	898	5	15	05	15	597.6666666666666	numpad	300.33333333333337
A37DKV7XQI7N5J	add2	False	108	1+7	8	543	True	8	891	1	7	01	07	717.6666666666666	numpad	173.33333333333337
A37DKV7XQI7N5J	add2	False	116	7+1	8	879	True	8	905	7	1	07	01	717.6666666666666	numpad	187.33333333333337
A37DKV7XQI7N5J	add2	False	118	6+2	8	646	True	8	753	6	2	06	02	717.6666666666666	numpad	35.33333333333337
A37DKV7XQI7N5J	add2	False	71	4+4	8	486	True	8	963	4	4	04	04	717.6666666666666	numpad	245.33333333333337
A37DKV7XQI7N5J	add2	False	88	0+8	8	572	True	8	758	0	8	00	08	717.6666666666666	numpad	40.33333333333337
A37DKV7XQI7N5J	add2	False	53	3+5	8	869	True	8	994	3	5	03	05	717.6666666666666	numpad	276.33333333333337
A37DKV7XQI7N5J	add2	False	18	8+0	8	509	True	8	766	8	0	08	00	717.6666666666666	numpad	48.33333333333337
A37DKV7XQI7N5J	add2	False	47	2+6	8	609	True	8	866	2	6	02	06	717.6666666666666	numpad	148.33333333333337
A37DKV7XQI7N5J	add2	False	98	5+3	8	625	True	8	856	5	3	05	03	717.6666666666666	numpad	138.33333333333337
A37DKV7XQI7N5J	add2	False	111	2+10	12	638	True	12	700	2	10	02	10	495.0	numpad	205.0
A37DKV7XQI7N5J	add2	False	12	5+7	12	832	True	12	791	5	7	05	07	495.0	numpad	296.0
A37DKV7XQI7N5J	add2	False	58	9+3	12	964	True	12	660	9	3	09	03	495.0	numpad	165.0
A37DKV7XQI7N5J	add2	False	61	12+0	12	984	True	12	688	12	0	12	00	495.0	numpad	193.0
A37DKV7XQI7N5J	add2	False	116	3+9	12	872	True	12	778	3	9	03	09	495.0	numpad	283.0
A37DKV7XQI7N5J	add2	False	137	0+12	12	683	True	12	708	0	12	00	12	495.0	numpad	213.0
A37DKV7XQI7N5J	add2	False	144	4+8	12	807	True	12	723	4	8	04	08	495.0	numpad	228.0
A37DKV7XQI7N5J	add2	False	29	7+5	12	917	True	12	677	7	5	07	05	495.0	numpad	182.0
A37DKV7XQI7N5J	add2	False	41	10+2	12	550	True	12	678	10	2	10	02	495.0	numpad	183.0
A37DKV7XQI7N5J	add2	False	59	6+6	12	844	True	12	746	6	6	06	06	495.0	numpad	251.0
A37DKV7XQI7N5J	add2	False	113	14+0	14	472	True	14	674	14	0	14	00	526.3333333333334	numpad	147.66666666666663
A37DKV7XQI7N5J	add2	False	120	6+8	14	468	True	14	1138	6	8	06	08	526.3333333333334	numpad	611.6666666666666
A37DKV7XQI7N5J	add2	False	13	1+13	14	806	True	14	828	1	13	01	13	526.3333333333334	numpad	301.66666666666663
A37DKV7XQI7N5J	add2	False	57	0+14	14	725	True	14	659	0	14	00	14	526.3333333333334	numpad	132.66666666666663
A37DKV7XQI7N5J	add2	False	102	9+5	14	969	True	14	749	9	5	09	05	526.3333333333334	numpad	222.66666666666663
A37DKV7XQI7N5J	add2	False	40	13+1	14	828	True	14	787	13	1	13	01	526.3333333333334	numpad	260.66666666666663
A37DKV7XQI7N5J	add2	False	12	7+7	14	667	True	14	758	7	7	07	07	526.3333333333334	numpad	231.66666666666663
A37DKV7XQI7N5J	add2	False	16	4+10	14	753	True	14	649	4	10	04	10	526.3333333333334	numpad	122.66666666666663
A37DKV7XQI7N5J	add2	False	39	11+3	14	590	True	14	835	11	3	11	03	526.3333333333334	numpad	308.66666666666663
A37DKV7XQI7N5J	add2	False	86	10+4	14	617	True	14	715	10	4	10	04	526.3333333333334	numpad	188.66666666666663
A37DKV7XQI7N5J	add2	False	90	3+11	14	500	True	14	780	3	11	03	11	526.3333333333334	numpad	253.66666666666663
A37DKV7XQI7N5J	add2	False	93	8+6	14	729	True	14	797	8	6	08	06	526.3333333333334	numpad	270.66666666666663
A37DKV7XQI7N5J	add2	False	95	12+2	14	522	True	14	702	12	2	12	02	526.3333333333334	numpad	175.66666666666663
A37DKV7XQI7N5J	add2	False	130	10+0	10	551	True	10	807	10	0	10	00	529.6666666666666	numpad	277.33333333333337
A37DKV7XQI7N5J	add2	False	33	3+7	10	560	True	10	687	3	7	03	07	529.6666666666666	numpad	157.33333333333337
A37DKV7XQI7N5J	add2	False	75	0+10	10	893	True	10	622	0	10	00	10	529.6666666666666	numpad	92.33333333333337
A37DKV7XQI7N5J	add2	False	15	1+9	10	693	True	10	936	1	9	01	09	529.6666666666666	numpad	406.33333333333337
A37DKV7XQI7N5J	add2	False	18	4+6	10	877	True	10	732	4	6	04	06	529.6666666666666	numpad	202.33333333333337
A37DKV7XQI7N5J	add2	False	74	8+2	10	744	True	10	666	8	2	08	02	529.6666666666666	numpad	136.33333333333337
A37DKV7XQI7N5J	add2	False	97	2+8	10	629	True	10	725	2	8	02	08	529.6666666666666	numpad	195.33333333333337
A37DKV7XQI7N5J	add2	False	58	9+1	10	617	True	10	723	9	1	09	01	529.6666666666666	numpad	193.33333333333337
A37DKV7XQI7N5J	add2	False	64	5+5	10	429	True	10	739	5	5	05	05	529.6666666666666	numpad	209.33333333333337
A37DKV7XQI7N5J	add2	False	88	6+4	10	608	True	10	683	6	4	06	04	529.6666666666666	numpad	153.33333333333337
A37DKV7XQI7N5J	add2	False	20	4+2	6	808	True	6	848	4	2	04	02	796.3333333333334	numpad	51.66666666666663
A37DKV7XQI7N5J	add2	False	126	6+0	6	507	True	6	851	6	0	06	00	796.3333333333334	numpad	54.66666666666663
A37DKV7XQI7N5J	add2	False	57	5+1	6	888	True	6	890	5	1	05	01	796.3333333333334	numpad	93.66666666666663
A37DKV7XQI7N5J	add2	False	104	1+5	6	956	True	6	788	1	5	01	05	796.3333333333334	numpad	-8.333333333333371
A37DKV7XQI7N5J	add2	False	38	3+3	6	906	True	6	917	3	3	03	03	796.3333333333334	numpad	120.66666666666663
A37DKV7XQI7N5J	add2	False	54	0+6	6	464	True	6	700	0	6	00	06	796.3333333333334	numpad	-96.33333333333337
A37DKV7XQI7N5J	add2	False	29	0+1	1	527	True	1	732	0	1	00	01	564.0	numpad	168.0
A37DKV7XQI7N5J	add2	False	122	1+0	1	507	True	1	672	1	0	01	00	564.0	numpad	108.0
A37DKV7XQI7N5J	add2	False	32	3+0	3	659	True	3	738	3	0	03	00	626.6666666666666	numpad	111.33333333333337
A37DKV7XQI7N5J	add2	False	22	1+2	3	586	True	3	735	1	2	01	02	626.6666666666666	numpad	108.33333333333337
A37DKV7XQI7N5J	add2	False	91	0+3	3	548	True	3	705	0	3	00	03	626.6666666666666	numpad	78.33333333333337
A37DKV7XQI7N5J	add2	False	59	3+2	5	708	True	5	775	3	2	03	02	667.6666666666666	numpad	107.33333333333337
A37DKV7XQI7N5J	add2	False	109	2+3	5	720	True	5	768	2	3	02	03	667.6666666666666	numpad	100.33333333333337
A37DKV7XQI7N5J	add2	False	79	1+4	5	574	True	5	882	1	4	01	04	667.6666666666666	numpad	214.33333333333337
A37DKV7XQI7N5J	add2	False	31	5+0	5	650	True	5	706	5	0	05	00	667.6666666666666	numpad	38.33333333333337
A37DKV7XQI7N5J	add2	False	46	0+5	5	829	True	5	713	0	5	00	05	667.6666666666666	numpad	45.33333333333337
A37DKV7XQI7N5J	add2	False	72	4+1	5	527	True	5	778	4	1	04	01	667.6666666666666	numpad	110.33333333333337
A37DKV7XQI7N5J	add2	False	63	7+2	9	876	True	9	764	7	2	07	02	772.0	numpad	-8.0
A37DKV7XQI7N5J	add2	False	2	9+0	9	569	True	9	743	9	0	09	00	772.0	numpad	-29.0
A37DKV7XQI7N5J	add2	False	22	3+6	9	526	True	9	859	3	6	03	06	772.0	numpad	87.0
A37DKV7XQI7N5J	add2	False	4	5+4	9	639	True	9	858	5	4	05	04	772.0	numpad	86.0
A37DKV7XQI7N5J	add2	False	103	6+3	9	664	True	9	804	6	3	06	03	772.0	numpad	32.0
A37DKV7XQI7N5J	add2	False	117	8+1	9	651	True	9	903	8	1	08	01	772.0	numpad	131.0
A37DKV7XQI7N5J	add2	False	131	0+9	9	578	True	9	976	0	9	00	09	772.0	numpad	204.0
A37DKV7XQI7N5J	add2	False	66	4+5	9	527	True	9	814	4	5	04	05	772.0	numpad	42.0
A37DKV7XQI7N5J	add2	False	83	1+8	9	844	True	9	845	1	8	01	08	772.0	numpad	73.0
A37DKV7XQI7N5J	add2	False	89	2+7	9	883	True	9	863	2	7	02	07	772.0	numpad	91.0
A37DKV7XQI7N5J	add2	False	90	2+5	7	979	True	7	798	2	5	02	05	682.0	numpad	116.0
A37DKV7XQI7N5J	add2	False	128	5+2	7	696	True	7	853	5	2	05	02	682.0	numpad	171.0
A37DKV7XQI7N5J	add2	False	46	3+4	7	892	True	7	801	3	4	03	04	682.0	numpad	119.0
A37DKV7XQI7N5J	add2	False	66	7+0	7	550	True	7	818	7	0	07	00	682.0	numpad	136.0
A37DKV7XQI7N5J	add2	False	75	1+6	7	993	True	7	924	1	6	01	06	682.0	numpad	242.0
A37DKV7XQI7N5J	add2	False	90	4+3	7	422	True	7	831	4	3	04	03	682.0	numpad	149.0
A37DKV7XQI7N5J	add2	False	37	6+1	7	913	True	7	823	6	1	06	01	682.0	numpad	141.0
A37DKV7XQI7N5J	add2	False	73	0+7	7	452	True	7	769	0	7	00	07	682.0	numpad	87.0
A37DKV7XQI7N5J	add2	False	101	3+8	11	481	True	11	730	3	8	03	08	563.3333333333334	numpad	166.66666666666663
A37DKV7XQI7N5J	add2	False	14	5+6	11	777	True	11	697	5	6	05	06	563.3333333333334	numpad	133.66666666666663
A37DKV7XQI7N5J	add2	False	141	11+0	11	847	True	11	670	11	0	11	00	563.3333333333334	numpad	106.66666666666663
A37DKV7XQI7N5J	add2	False	42	4+7	11	978	True	11	644	4	7	04	07	563.3333333333334	numpad	80.66666666666663
A37DKV7XQI7N5J	add2	False	45	8+3	11	649	True	11	653	8	3	08	03	563.3333333333334	numpad	89.66666666666663
A37DKV7XQI7N5J	add2	False	67	9+2	11	496	True	11	733	9	2	09	02	563.3333333333334	numpad	169.66666666666663
A37DKV7XQI7N5J	add2	False	81	2+9	11	461	True	11	706	2	9	02	09	563.3333333333334	numpad	142.66666666666663
A37DKV7XQI7N5J	add2	False	102	7+4	11	573	True	11	713	7	4	07	04	563.3333333333334	numpad	149.66666666666663
A37DKV7XQI7N5J	add2	False	45	10+1	11	698	True	11	753	10	1	10	01	563.3333333333334	numpad	189.66666666666663
A37DKV7XQI7N5J	add2	False	49	6+5	11	933	True	11	714	6	5	06	05	563.3333333333334	numpad	150.66666666666663
A37DKV7XQI7N5J	add2	False	70	1+10	11	705	True	11	790	1	10	01	10	563.3333333333334	numpad	226.66666666666663
A37DKV7XQI7N5J	add2	False	44	0+2	2	606	True	2	615	0	2	00	02	600.0	numpad	15.0
A37DKV7XQI7N5J	add2	False	138	2+0	2	657	True	2	691	2	0	02	00	600.0	numpad	91.0
A37DKV7XQI7N5J	add2	False	63	1+1	2	659	True	2	732	1	1	01	01	600.0	numpad	132.0
A37DKV7XQI7N5J	add2	False	6	0+0	0	876	True	0	690	0	0	00	00	704.3333333333334	numpad	-14.333333333333371
A315GZMPR49WIY	add2	False	100	14+1	15	429	True	15	1250	14	1	14	01	884.6666666666666	numpad	365.33333333333337
A315GZMPR49WIY	add2	False	110	7+8	15	644	True	15	2605	7	8	07	08	884.6666666666666	numpad	1720.3333333333335
A315GZMPR49WIY	add2	False	124	0+15	15	559	True	15	1126	0	15	00	15	884.6666666666666	numpad	241.33333333333337
A315GZMPR49WIY	add2	False	36	3+12	15	800	True	15	1775	3	12	03	12	884.6666666666666	numpad	890.3333333333334
A315GZMPR49WIY	add2	False	5	9+6	15	680	True	15	2001	9	6	09	06	884.6666666666666	numpad	1116.3333333333335
A315GZMPR49WIY	add2	False	66	8+7	15	658	True	15	3512	8	7	08	07	884.6666666666666	numpad	2627.3333333333335
A315GZMPR49WIY	add2	False	105	11+4	15	409	True	15	1817	11	4	11	04	884.6666666666666	numpad	932.3333333333334
A315GZMPR49WIY	add2	False	115	10+5	15	905	True	15	1202	10	5	10	05	884.6666666666666	numpad	317.33333333333337
A315GZMPR49WIY	add2	False	88	12+3	15	684	True	15	1805	12	3	12	03	884.6666666666666	numpad	920.3333333333334
A315GZMPR49WIY	add2	False	106	13+2	15	620	True	15	1288	13	2	13	02	884.6666666666666	numpad	403.33333333333337
A315GZMPR49WIY	add2	False	108	15+0	15	491	True	15	1016	15	0	15	00	884.6666666666666	numpad	131.33333333333337
A315GZMPR49WIY	add2	False	125	4+11	15	823	True	15	1562	4	11	04	11	884.6666666666666	numpad	677.3333333333334
A315GZMPR49WIY	add2	False	20	5+10	15	478	True	15	1545	5	10	05	10	884.6666666666666	numpad	660.3333333333334
A315GZMPR49WIY	add2	False	5	1+14	15	992	True	15	1439	1	14	01	14	884.6666666666666	numpad	554.3333333333334
A315GZMPR49WIY	add2	False	74	2+13	15	506	True	15	2510	2	13	02	13	884.6666666666666	numpad	1625.3333333333335
A315GZMPR49WIY	add2	False	8	6+9	15	970	True	15	1418	6	9	06	09	884.6666666666666	numpad	533.3333333333334
A315GZMPR49WIY	add2	False	101	14+6	20	794	True	20	1646	14	6	14	06	939.0	numpad	707.0
A315GZMPR49WIY	add2	False	43	3+17	20	793	True	20	2131	3	17	03	17	939.0	numpad	1192.0
A315GZMPR49WIY	add2	False	49	5+15	20	826	True	20	1600	5	15	05	15	939.0	numpad	661.0
A315GZMPR49WIY	add2	False	71	20+0	20	502	True	20	1072	20	0	20	00	939.0	numpad	133.0
A315GZMPR49WIY	add2	False	89	15+5	20	697	True	20	1218	15	5	15	05	939.0	numpad	279.0
A315GZMPR49WIY	add2	False	118	0+20	20	622	True	20	1142	0	20	00	20	939.0	numpad	203.0
A315GZMPR49WIY	add2	False	120	10+10	20	607	True	20	1207	10	10	10	10	939.0	numpad	268.0
A315GZMPR49WIY	add2	False	126	2+18	20	681	True	20	1449	2	18	02	18	939.0	numpad	510.0
A315GZMPR49WIY	add2	False	144	13+7	20	876	True	20	1962	13	7	13	07	939.0	numpad	1023.0
A315GZMPR49WIY	add2	False	61	4+16	20	759	True	20	1369	4	16	04	16	939.0	numpad	430.0
A315GZMPR49WIY	add2	False	62	6+14	20	915	True	20	1432	6	14	06	14	939.0	numpad	493.0
A315GZMPR49WIY	add2	False	70	18+2	20	534	True	20	1305	18	2	18	02	939.0	numpad	366.0
A315GZMPR49WIY	add2	False	101	17+3	20	505	True	20	1154	17	3	17	03	939.0	numpad	215.0
A315GZMPR49WIY	add2	False	103	12+8	20	753	True	20	1315	12	8	12	08	939.0	numpad	376.0
A315GZMPR49WIY	add2	False	135	19+1	20	501	True	20	1289	19	1	19	01	939.0	numpad	350.0
A315GZMPR49WIY	add2	False	145	1+19	20	461	True	20	1435	1	19	01	19	939.0	numpad	496.0
A315GZMPR49WIY	add2	False	23	8+12	20	673	True	20	2145	8	12	08	12	939.0	numpad	1206.0
A315GZMPR49WIY	add2	False	38	7+13	20	775	True	20	2043	7	13	07	13	939.0	numpad	1104.0
A315GZMPR49WIY	add2	False	66	11+9	20	821	True	20	2089	11	9	11	09	939.0	numpad	1150.0
A315GZMPR49WIY	add2	False	79	9+11	20	633	True	20	1881	9	11	09	11	939.0	numpad	942.0
A315GZMPR49WIY	add2	False	99	16+4	20	567	True	20	1857	16	4	16	04	939.0	numpad	918.0
A315GZMPR49WIY	add2	False	102	3+5	8	507	True	8	2100	3	5	03	05	970.0	numpad	1130.0
A315GZMPR49WIY	add2	False	136	5+3	8	517	True	8	1857	5	3	05	03	970.0	numpad	887.0
A315GZMPR49WIY	add2	False	22	7+1	8	685	True	8	1435	7	1	07	01	970.0	numpad	465.0
A315GZMPR49WIY	add2	False	59	4+4	8	838	True	8	1303	4	4	04	04	970.0	numpad	333.0
A315GZMPR49WIY	add2	False	62	0+8	8	973	True	8	1115	0	8	00	08	970.0	numpad	145.0
A315GZMPR49WIY	add2	False	132	6+2	8	555	True	8	1394	6	2	06	02	970.0	numpad	424.0
A315GZMPR49WIY	add2	False	105	1+7	8	477	True	8	1107	1	7	01	07	970.0	numpad	137.0
A315GZMPR49WIY	add2	False	113	8+0	8	745	True	8	1222	8	0	08	00	970.0	numpad	252.0
A315GZMPR49WIY	add2	False	11	2+10	12	725	True	12	1216	2	10	02	10	968.0	numpad	248.0
A315GZMPR49WIY	add2	False	134	4+8	12	883	True	12	3501	4	8	04	08	968.0	numpad	2533.0
A315GZMPR49WIY	add2	False	8	1+11	12	746	True	12	1409	1	11	01	11	968.0	numpad	441.0
A315GZMPR49WIY	add2	False	81	11+1	12	794	True	12	1414	11	1	11	01	968.0	numpad	446.0
A315GZMPR49WIY	add2	False	131	12+0	12	822	True	12	1306	12	0	12	00	968.0	numpad	338.0
A315GZMPR49WIY	add2	False	20	10+2	12	677	True	12	1171	10	2	10	02	968.0	numpad	203.0
A315GZMPR49WIY	add2	False	26	5+7	12	607	True	12	4738	5	7	05	07	968.0	numpad	3770.0
A315GZMPR49WIY	add2	False	44	0+12	12	933	True	12	1229	0	12	00	12	968.0	numpad	261.0
A315GZMPR49WIY	add2	False	51	8+4	12	979	True	12	2513	8	4	08	04	968.0	numpad	1545.0
A315GZMPR49WIY	add2	False	8	9+3	12	615	True	12	1555	9	3	09	03	968.0	numpad	587.0
A315GZMPR49WIY	add2	False	94	6+6	12	425	True	12	2151	6	6	06	06	968.0	numpad	1183.0
A315GZMPR49WIY	add2	False	134	3+9	12	482	True	12	1687	3	9	03	09	968.0	numpad	719.0
A315GZMPR49WIY	add2	False	30	7+5	12	997	True	12	3355	7	5	07	05	968.0	numpad	2387.0
A315GZMPR49WIY	add2	False	112	4+10	14	686	True	14	1563	4	10	04	10	777.0	numpad	786.0
A315GZMPR49WIY	add2	False	114	13+1	14	400	True	14	1236	13	1	13	01	777.0	numpad	459.0
A315GZMPR49WIY	add2	False	51	7+7	14	437	True	14	1185	7	7	07	07	777.0	numpad	408.0
A315GZMPR49WIY	add2	False	84	8+6	14	974	True	14	4832	8	6	08	06	777.0	numpad	4055.0
A315GZMPR49WIY	add2	False	9	0+14	14	863	True	14	1435	0	14	00	14	777.0	numpad	658.0
A315GZMPR49WIY	add2	False	114	10+4	14	410	True	14	1182	10	4	10	04	777.0	numpad	405.0
A315GZMPR49WIY	add2	False	129	5+9	14	964	True	14	3526	5	9	05	09	777.0	numpad	2749.0
A315GZMPR49WIY	add2	False	29	6+8	14	825	True	14	3105	6	8	06	08	777.0	numpad	2328.0
A315GZMPR49WIY	add2	False	47	1+13	14	582	True	14	1229	1	13	01	13	777.0	numpad	452.0
A315GZMPR49WIY	add2	False	80	11+3	14	908	True	14	1362	11	3	11	03	777.0	numpad	585.0
A315GZMPR49WIY	add2	False	35	2+12	14	460	True	14	2361	2	12	02	12	777.0	numpad	1584.0
A315GZMPR49WIY	add2	False	56	12+2	14	418	True	14	1265	12	2	12	02	777.0	numpad	488.0
A315GZMPR49WIY	add2	False	64	3+11	14	414	True	14	3551	3	11	03	11	777.0	numpad	2774.0
A315GZMPR49WIY	add2	False	115	5+13	18	468	True	18	3052	5	13	05	13	1204.0	numpad	1848.0
A315GZMPR49WIY	add2	False	138	6+12	18	579	True	18	1904	6	12	06	12	1204.0	numpad	700.0
A315GZMPR49WIY	add2	False	22	14+4	18	841	True	18	1929	14	4	14	04	1204.0	numpad	725.0
A315GZMPR49WIY	add2	False	35	7+11	18	935	True	18	1327	7	11	07	11	1204.0	numpad	123.0
A315GZMPR49WIY	add2	False	37	10+8	18	602	True	18	1361	10	8	10	08	1204.0	numpad	157.0
A315GZMPR49WIY	add2	False	39	11+7	18	985	True	18	1277	11	7	11	07	1204.0	numpad	73.0
A315GZMPR49WIY	add2	False	78	0+18	18	462	True	18	1421	0	18	00	18	1204.0	numpad	217.0
A315GZMPR49WIY	add2	False	98	16+2	18	668	True	18	1422	16	2	16	02	1204.0	numpad	218.0
A315GZMPR49WIY	add2	False	107	18+0	18	954	True	18	1064	18	0	18	00	1204.0	numpad	-140.0
A315GZMPR49WIY	add2	False	119	9+9	18	720	True	18	1250	9	9	09	09	1204.0	numpad	46.0
A315GZMPR49WIY	add2	False	33	2+16	18	578	True	18	1830	2	16	02	16	1204.0	numpad	626.0
A315GZMPR49WIY	add2	False	50	15+3	18	701	True	18	1884	15	3	15	03	1204.0	numpad	680.0
A315GZMPR49WIY	add2	False	81	12+6	18	545	True	18	2123	12	6	12	06	1204.0	numpad	919.0
A315GZMPR49WIY	add2	False	87	4+14	18	717	True	18	1489	4	14	04	14	1204.0	numpad	285.0
A315GZMPR49WIY	add2	False	121	2+8	10	707	True	10	1199	2	8	02	08	758.6666666666666	numpad	440.33333333333337
A315GZMPR49WIY	add2	False	25	1+9	10	975	True	10	1566	1	9	01	09	758.6666666666666	numpad	807.3333333333334
A315GZMPR49WIY	add2	False	29	8+2	10	564	True	10	1215	8	2	08	02	758.6666666666666	numpad	456.33333333333337
A315GZMPR49WIY	add2	False	38	6+4	10	683	True	10	1232	6	4	06	04	758.6666666666666	numpad	473.33333333333337
A315GZMPR49WIY	add2	False	64	5+5	10	996	True	10	1069	5	5	05	05	758.6666666666666	numpad	310.33333333333337
A315GZMPR49WIY	add2	False	91	0+10	10	625	True	10	1300	0	10	00	10	758.6666666666666	numpad	541.3333333333334
A315GZMPR49WIY	add2	False	124	9+1	10	900	True	10	1147	9	1	09	01	758.6666666666666	numpad	388.33333333333337
A315GZMPR49WIY	add2	False	52	10+0	10	819	True	10	1105	10	0	10	00	758.6666666666666	numpad	346.33333333333337
A315GZMPR49WIY	add2	False	75	7+3	10	504	True	10	3997	7	3	07	03	758.6666666666666	numpad	3238.3333333333335
A315GZMPR49WIY	add2	False	114	4+6	10	413	True	10	1283	4	6	04	06	758.6666666666666	numpad	524.3333333333334
A315GZMPR49WIY	add2	False	116	3+7	10	772	True	10	1569	3	7	03	07	758.6666666666666	numpad	810.3333333333334
A315GZMPR49WIY	add2	False	129	3+1	4	569	True	4	1143	3	1	03	01	951.0	numpad	192.0
A315GZMPR49WIY	add2	False	102	1+3	4	445	True	4	1507	1	3	01	03	951.0	numpad	556.0
A315GZMPR49WIY	add2	False	50	0+4	4	456	True	4	1352	0	4	00	04	951.0	numpad	401.0
A315GZMPR49WIY	add2	False	137	2+2	4	411	True	4	1244	2	2	02	02	951.0	numpad	293.0
A315GZMPR49WIY	add2	False	139	4+0	4	825	True	4	1047	4	0	04	00	951.0	numpad	96.0
A315GZMPR49WIY	add2	False	138	3+6	9	827	True	9	1725	3	6	03	06	930.6666666666666	numpad	794.3333333333334
A315GZMPR49WIY	add2	False	58	4+5	9	632	True	9	1318	4	5	04	05	930.6666666666666	numpad	387.33333333333337
A315GZMPR49WIY	add2	False	79	9+0	9	732	True	9	1282	9	0	09	00	930.6666666666666	numpad	351.33333333333337
A315GZMPR49WIY	add2	False	103	6+3	9	554	True	9	1528	6	3	06	03	930.6666666666666	numpad	597.3333333333334
A315GZMPR49WIY	add2	False	117	7+2	9	619	True	9	2234	7	2	07	02	930.6666666666666	numpad	1303.3333333333335
A315GZMPR49WIY	add2	False	31	1+8	9	931	True	9	1367	1	8	01	08	930.6666666666666	numpad	436.33333333333337
A315GZMPR49WIY	add2	False	67	0+9	9	426	True	9	1139	0	9	00	09	930.6666666666666	numpad	208.33333333333337
A315GZMPR49WIY	add2	False	42	5+4	9	628	True	9	1274	5	4	05	04	930.6666666666666	numpad	343.33333333333337
A315GZMPR49WIY	add2	False	47	2+7	9	447	True	9	1431	2	7	02	07	930.6666666666666	numpad	500.33333333333337
A315GZMPR49WIY	add2	False	96	8+1	9	585	True	9	1259	8	1	08	01	930.6666666666666	numpad	328.33333333333337
A315GZMPR49WIY	add2	False	140	1+10	11	761	True	11	1094	1	10	01	10	914.6666666666666	numpad	179.33333333333337
A315GZMPR49WIY	add2	False	27	9+2	11	830	True	11	1202	9	2	09	02	914.6666666666666	numpad	287.33333333333337
A315GZMPR49WIY	add2	False	42	2+9	11	981	True	11	1584	2	9	02	09	914.6666666666666	numpad	669.3333333333334
A315GZMPR49WIY	add2	False	112	0+11	11	860	True	11	1185	0	11	00	11	914.6666666666666	numpad	270.33333333333337
A315GZMPR49WIY	add2	False	49	7+4	11	591	True	11	3097	7	4	07	04	914.6666666666666	numpad	2182.3333333333335
A315GZMPR49WIY	add2	False	53	11+0	11	839	True	11	1086	11	0	11	00	914.6666666666666	numpad	171.33333333333337
A315GZMPR49WIY	add2	False	84	5+6	11	462	True	11	2609	5	6	05	06	914.6666666666666	numpad	1694.3333333333335
A315GZMPR49WIY	add2	False	92	10+1	11	885	True	11	1148	10	1	10	01	914.6666666666666	numpad	233.33333333333337
A315GZMPR49WIY	add2	False	61	8+3	11	505	True	11	2581	8	3	08	03	914.6666666666666	numpad	1666.3333333333335
A315GZMPR49WIY	add2	False	65	3+8	11	886	True	11	2135	3	8	03	08	914.6666666666666	numpad	1220.3333333333335
A315GZMPR49WIY	add2	False	69	6+5	11	541	True	11	1835	6	5	06	05	914.6666666666666	numpad	920.3333333333334
A315GZMPR49WIY	add2	False	18	2+17	19	980	True	19	2036	2	17	02	17	734.3333333333334	numpad	1301.6666666666665
A315GZMPR49WIY	add2	False	94	16+3	19	986	True	19	1616	16	3	16	03	734.3333333333334	numpad	881.6666666666666
A315GZMPR49WIY	add2	False	99	1+18	19	748	True	19	1600	1	18	01	18	734.3333333333334	numpad	865.6666666666666
A315GZMPR49WIY	add2	False	100	8+11	19	506	True	19	4628	8	11	08	11	734.3333333333334	numpad	3893.6666666666665
A315GZMPR49WIY	add2	False	121	9+10	19	776	True	19	1273	9	10	09	10	734.3333333333334	numpad	538.6666666666666
A315GZMPR49WIY	add2	False	125	13+6	19	677	True	19	1757	13	6	13	06	734.3333333333334	numpad	1022.6666666666666
A315GZMPR49WIY	add2	False	133	6+13	19	792	True	19	1852	6	13	06	13	734.3333333333334	numpad	1117.6666666666665
A315GZMPR49WIY	add2	False	140	0+19	19	953	True	19	1397	0	19	00	19	734.3333333333334	numpad	662.6666666666666
A315GZMPR49WIY	add2	False	141	15+4	19	903	True	19	1424	15	4	15	04	734.3333333333334	numpad	689.6666666666666
A315GZMPR49WIY	add2	False	4	7+12	19	887	True	19	3085	7	12	07	12	734.3333333333334	numpad	2350.6666666666665
A315GZMPR49WIY	add2	False	9	17+2	19	489	True	19	1769	17	2	17	02	734.3333333333334	numpad	1034.6666666666665
A315GZMPR49WIY	add2	False	39	3+16	19	560	True	19	1636	3	16	03	16	734.3333333333334	numpad	901.6666666666666
A315GZMPR49WIY	add2	False	49	10+9	19	604	True	19	1221	10	9	10	09	734.3333333333334	numpad	486.66666666666663
A315GZMPR49WIY	add2	False	76	4+15	19	463	True	19	1557	4	15	04	15	734.3333333333334	numpad	822.6666666666666
A315GZMPR49WIY	add2	False	78	5+14	19	507	True	19	1940	5	14	05	14	734.3333333333334	numpad	1205.6666666666665
A315GZMPR49WIY	add2	False	97	12+7	19	718	True	19	1938	12	7	12	07	734.3333333333334	numpad	1203.6666666666665
A315GZMPR49WIY	add2	False	24	3+2	5	586	True	5	1579	3	2	03	02	872.0	numpad	707.0
A315GZMPR49WIY	add2	False	76	2+3	5	495	True	5	1279	2	3	02	03	872.0	numpad	407.0
A315GZMPR49WIY	add2	False	123	5+0	5	459	True	5	1196	5	0	05	00	872.0	numpad	324.0
A315GZMPR49WIY	add2	False	90	4+1	5	724	True	5	1093	4	1	04	01	872.0	numpad	221.0
A315GZMPR49WIY	add2	False	97	0+5	5	649	True	5	1103	0	5	00	05	872.0	numpad	231.0
A315GZMPR49WIY	add2	False	2	1+4	5	500	True	5	1204	1	4	01	04	872.0	numpad	332.0
A315GZMPR49WIY	add2	False	33	0+6	6	933	True	6	1469	0	6	00	06	1066.0	numpad	403.0
A315GZMPR49WIY	add2	False	39	1+5	6	537	True	6	1335	1	5	01	05	1066.0	numpad	269.0
A315GZMPR49WIY	add2	False	136	6+0	6	952	True	6	1071	6	0	06	00	1066.0	numpad	5.0
A315GZMPR49WIY	add2	False	2	5+1	6	899	True	6	1151	5	1	05	01	1066.0	numpad	85.0
A315GZMPR49WIY	add2	False	25	3+3	6	468	True	6	1195	3	3	03	03	1066.0	numpad	129.0
A315GZMPR49WIY	add2	False	63	2+4	6	423	True	6	1364	2	4	02	04	1066.0	numpad	298.0
A315GZMPR49WIY	add2	False	104	4+2	6	416	True	6	1272	4	2	04	02	1066.0	numpad	206.0
A315GZMPR49WIY	add2	False	70	3+4	7	644	True	7	1947	3	4	03	04	1023.5	numpad	923.5
A315GZMPR49WIY	add2	False	83	6+1	7	542	True	7	1261	6	1	06	01	1023.5	numpad	237.5
A315GZMPR49WIY	add2	False	108	5+2	7	803	True	7	1578	5	2	05	02	1023.5	numpad	554.5
A315GZMPR49WIY	add2	False	15	4+3	7	803	True	7	2396	4	3	04	03	1023.5	numpad	1372.5
A315GZMPR49WIY	add2	False	34	7+0	7	568	True	7	1369	7	0	07	00	1023.5	numpad	345.5
A315GZMPR49WIY	add2	False	133	1+6	7	540	True	7	1169	1	6	01	06	1023.5	numpad	145.5
A315GZMPR49WIY	add2	False	70	2+5	7	802	True	7	1598	2	5	02	05	1023.5	numpad	574.5
A315GZMPR49WIY	add2	False	83	0+7	7	533	True	7	1077	0	7	00	07	1023.5	numpad	53.5
A315GZMPR49WIY	add2	False	80	0+0	0	526	True	0	974	0	0	00	00	797.6666666666666	numpad	176.33333333333337
A315GZMPR49WIY	add2	False	104	3+0	3	872	True	3	1312	3	0	03	00	1002.0	numpad	310.0
A315GZMPR49WIY	add2	False	135	0+3	3	703	True	3	1214	0	3	00	03	1002.0	numpad	212.0
A315GZMPR49WIY	add2	False	30	1+2	3	808	True	3	1497	1	2	01	02	1002.0	numpad	495.0
A315GZMPR49WIY	add2	False	67	2+1	3	763	True	3	1173	2	1	02	01	1002.0	numpad	171.0
A315GZMPR49WIY	add2	False	127	1+1	2	969	True	2	1091	1	1	01	01	820.0	numpad	271.0
A315GZMPR49WIY	add2	False	21	2+0	2	570	True	2	1159	2	0	02	00	820.0	numpad	339.0
A315GZMPR49WIY	add2	False	54	0+2	2	407	True	2	1112	0	2	00	02	820.0	numpad	292.0
A315GZMPR49WIY	add2	False	132	0+1	1	706	True	1	1047	0	1	00	01	953.0	numpad	94.0
A315GZMPR49WIY	add2	False	60	1+0	1	771	True	1	1029	1	0	01	00	953.0	numpad	76.0
A2RCMJLGDWYFO	add2	False	0	9+7	16	468	True	16	1385	9	7	09	07	1121.0	numbar	264.0
A2RCMJLGDWYFO	add2	False	96	11+5	16	593	True	16	2733	11	5	11	05	1121.0	numbar	1612.0
A2RCMJLGDWYFO	add2	False	120	5+11	16	885	True	16	2218	5	11	05	11	1121.0	numbar	1097.0
A2RCMJLGDWYFO	add2	False	126	14+2	16	532	True	16	1864	14	2	14	02	1121.0	numbar	743.0
A2RCMJLGDWYFO	add2	False	145	7+9	16	883	True	16	2263	7	9	07	09	1121.0	numbar	1142.0
A2RCMJLGDWYFO	add2	False	22	1+15	16	964	True	16	1675	1	15	01	15	1121.0	numbar	554.0
A2RCMJLGDWYFO	add2	False	67	3+13	16	676	True	16	2202	3	13	03	13	1121.0	numbar	1081.0
A2RCMJLGDWYFO	add2	False	92	0+16	16	687	True	16	1521	0	16	00	16	1121.0	numbar	400.0
A2RCMJLGDWYFO	add2	False	95	6+10	16	843	True	16	1637	6	10	06	10	1121.0	numbar	516.0
A2RCMJLGDWYFO	add2	False	57	15+1	16	568	True	16	1556	15	1	15	01	1121.0	numbar	435.0
A2RCMJLGDWYFO	add2	False	74	4+12	16	484	True	16	3334	4	12	04	12	1121.0	numbar	2213.0
A2RCMJLGDWYFO	add2	False	80	12+4	16	881	True	16	1899	12	4	12	04	1121.0	numbar	778.0
A2RCMJLGDWYFO	add2	False	10	2+17	19	690	True	19	2731	2	17	02	17	986.0	numbar	1745.0
A2RCMJLGDWYFO	add2	False	22	6+13	19	664	True	19	1944	6	13	06	13	986.0	numbar	958.0
A2RCMJLGDWYFO	add2	False	49	11+8	19	736	True	19	2495	11	8	11	08	986.0	numbar	1509.0
A2RCMJLGDWYFO	add2	False	5	10+9	19	692	True	19	1283	10	9	10	09	986.0	numbar	297.0
A2RCMJLGDWYFO	add2	False	66	17+2	19	740	True	19	2188	17	2	17	02	986.0	numbar	1202.0
A2RCMJLGDWYFO	add2	False	76	8+11	19	465	True	19	2556	8	11	08	11	986.0	numbar	1570.0
A2RCMJLGDWYFO	add2	False	81	19+0	19	475	True	19	1492	19	0	19	00	986.0	numbar	506.0
A2RCMJLGDWYFO	add2	False	107	0+19	19	998	True	19	1624	0	19	00	19	986.0	numbar	638.0
A2RCMJLGDWYFO	add2	False	113	16+3	19	481	True	19	1984	16	3	16	03	986.0	numbar	998.0
A2RCMJLGDWYFO	add2	False	8	7+12	19	429	True	19	1596	7	12	07	12	986.0	numbar	610.0
A2RCMJLGDWYFO	add2	False	107	14+5	19	931	True	19	1727	14	5	14	05	986.0	numbar	741.0
A2RCMJLGDWYFO	add2	False	123	13+6	19	685	True	19	3150	13	6	13	06	986.0	numbar	2164.0
A2RCMJLGDWYFO	add2	False	13	1+18	19	525	True	19	2691	1	18	01	18	986.0	numbar	1705.0
A2RCMJLGDWYFO	add2	False	133	4+15	19	920	True	19	2018	4	15	04	15	986.0	numbar	1032.0
A2RCMJLGDWYFO	add2	False	48	12+7	19	427	True	19	1954	12	7	12	07	986.0	numbar	968.0
A2RCMJLGDWYFO	add2	False	63	18+1	19	917	True	19	1882	18	1	18	01	986.0	numbar	896.0
A2RCMJLGDWYFO	add2	False	67	3+16	19	707	True	19	1595	3	16	03	16	986.0	numbar	609.0
A2RCMJLGDWYFO	add2	False	100	1+7	8	821	True	8	1592	1	7	01	07	1031.0	numbar	561.0
A2RCMJLGDWYFO	add2	False	114	8+0	8	752	True	8	1228	8	0	08	00	1031.0	numbar	197.0
A2RCMJLGDWYFO	add2	False	116	7+1	8	650	True	8	1860	7	1	07	01	1031.0	numbar	829.0
A2RCMJLGDWYFO	add2	False	142	3+5	8	489	True	8	1846	3	5	03	05	1031.0	numbar	815.0
A2RCMJLGDWYFO	add2	False	37	5+3	8	595	True	8	1230	5	3	05	03	1031.0	numbar	199.0
A2RCMJLGDWYFO	add2	False	10	6+2	8	520	True	8	1125	6	2	06	02	1031.0	numbar	94.0
A2RCMJLGDWYFO	add2	False	21	0+8	8	533	True	8	1510	0	8	00	08	1031.0	numbar	479.0
A2RCMJLGDWYFO	add2	False	5	2+6	8	501	True	8	1691	2	6	02	06	1031.0	numbar	660.0
A2RCMJLGDWYFO	add2	False	56	4+4	8	726	True	8	1209	4	4	04	04	1031.0	numbar	178.0
A2RCMJLGDWYFO	add2	False	101	0+14	14	765	True	14	2261	0	14	00	14	946.0	numbar	1315.0
A2RCMJLGDWYFO	add2	False	12	6+8	14	707	True	14	1705	6	8	06	08	946.0	numbar	759.0
A2RCMJLGDWYFO	add2	False	132	11+3	14	807	True	14	2728	11	3	11	03	946.0	numbar	1782.0
A2RCMJLGDWYFO	add2	False	135	9+5	14	798	True	14	1506	9	5	09	05	946.0	numbar	560.0
A2RCMJLGDWYFO	add2	False	143	7+7	14	518	True	14	1400	7	7	07	07	946.0	numbar	454.0
A2RCMJLGDWYFO	add2	False	69	4+10	14	794	True	14	1512	4	10	04	10	946.0	numbar	566.0
A2RCMJLGDWYFO	add2	False	109	1+13	14	463	True	14	2366	1	13	01	13	946.0	numbar	1420.0
A2RCMJLGDWYFO	add2	False	11	5+9	14	676	True	14	1624	5	9	05	09	946.0	numbar	678.0
A2RCMJLGDWYFO	add2	False	116	8+6	14	977	True	14	2495	8	6	08	06	946.0	numbar	1549.0
A2RCMJLGDWYFO	add2	False	119	13+1	14	890	True	14	1672	13	1	13	01	946.0	numbar	726.0
A2RCMJLGDWYFO	add2	False	40	2+12	14	990	True	14	1662	2	12	02	12	946.0	numbar	716.0
A2RCMJLGDWYFO	add2	False	97	12+2	14	758	True	14	2153	12	2	12	02	946.0	numbar	1207.0
A2RCMJLGDWYFO	add2	False	130	10+4	14	705	True	14	1691	10	4	10	04	946.0	numbar	745.0
A2RCMJLGDWYFO	add2	False	79	3+11	14	618	True	14	3879	3	11	03	11	946.0	numbar	2933.0
A2RCMJLGDWYFO	add2	False	96	14+0	14	740	True	14	1434	14	0	14	00	946.0	numbar	488.0
A2RCMJLGDWYFO	add2	False	104	15+0	15	593	True	15	1501	15	0	15	00	1021.5	numbar	479.5
A2RCMJLGDWYFO	add2	False	56	1+14	15	544	True	15	2643	1	14	01	14	1021.5	numbar	1621.5
A2RCMJLGDWYFO	add2	False	80	7+8	15	690	True	15	2445	7	8	07	08	1021.5	numbar	1423.5
A2RCMJLGDWYFO	add2	False	115	0+15	15	989	True	15	1554	0	15	00	15	1021.5	numbar	532.5
A2RCMJLGDWYFO	add2	False	129	14+1	15	558	True	15	1761	14	1	14	01	1021.5	numbar	739.5
A2RCMJLGDWYFO	add2	False	138	9+6	15	970	True	15	1618	9	6	09	06	1021.5	numbar	596.5
A2RCMJLGDWYFO	add2	False	60	4+11	15	667	True	15	2227	4	11	04	11	1021.5	numbar	1205.5
A2RCMJLGDWYFO	add2	False	78	10+5	15	600	True	15	1639	10	5	10	05	1021.5	numbar	617.5
A2RCMJLGDWYFO	add2	False	88	12+3	15	412	True	15	2050	12	3	12	03	1021.5	numbar	1028.5
A2RCMJLGDWYFO	add2	False	89	6+9	15	885	True	15	2009	6	9	06	09	1021.5	numbar	987.5
A2RCMJLGDWYFO	add2	False	118	3+12	15	625	True	15	2017	3	12	03	12	1021.5	numbar	995.5
A2RCMJLGDWYFO	add2	False	20	11+4	15	807	True	15	2982	11	4	11	04	1021.5	numbar	1960.5
A2RCMJLGDWYFO	add2	False	29	5+10	15	698	True	15	2308	5	10	05	10	1021.5	numbar	1286.5
A2RCMJLGDWYFO	add2	False	62	8+7	15	598	True	15	2053	8	7	08	07	1021.5	numbar	1031.5
A2RCMJLGDWYFO	add2	False	93	13+2	15	476	True	15	1907	13	2	13	02	1021.5	numbar	885.5
A2RCMJLGDWYFO	add2	False	109	0+2	2	868	True	2	1162	0	2	00	02	921.6666666666666	numbar	240.33333333333337
A2RCMJLGDWYFO	add2	False	93	2+0	2	985	True	2	1274	2	0	02	00	921.6666666666666	numbar	352.33333333333337
A2RCMJLGDWYFO	add2	False	53	1+1	2	656	True	2	1105	1	1	01	01	921.6666666666666	numbar	183.33333333333337
A2RCMJLGDWYFO	add2	False	11	8+5	13	595	True	13	1721	8	5	08	05	1017.0	numbar	704.0
A2RCMJLGDWYFO	add2	False	137	13+0	13	876	True	13	1154	13	0	13	00	1017.0	numbar	137.0
A2RCMJLGDWYFO	add2	False	2	2+11	13	675	True	13	2094	2	11	02	11	1017.0	numbar	1077.0
A2RCMJLGDWYFO	add2	False	55	3+10	13	570	True	13	1907	3	10	03	10	1017.0	numbar	890.0
A2RCMJLGDWYFO	add2	False	74	5+8	13	695	True	13	1941	5	8	05	08	1017.0	numbar	924.0
A2RCMJLGDWYFO	add2	False	93	7+6	13	685	True	13	2690	7	6	07	06	1017.0	numbar	1673.0
A2RCMJLGDWYFO	add2	False	130	0+13	13	677	True	13	1245	0	13	00	13	1017.0	numbar	228.0
A2RCMJLGDWYFO	add2	False	87	9+4	13	692	True	13	1933	9	4	09	04	1017.0	numbar	916.0
A2RCMJLGDWYFO	add2	False	91	6+7	13	714	True	13	1860	6	7	06	07	1017.0	numbar	843.0
A2RCMJLGDWYFO	add2	False	139	11+2	13	711	True	13	2518	11	2	11	02	1017.0	numbar	1501.0
A2RCMJLGDWYFO	add2	False	43	4+9	13	521	True	13	2358	4	9	04	09	1017.0	numbar	1341.0
A2RCMJLGDWYFO	add2	False	58	12+1	13	675	True	13	1723	12	1	12	01	1017.0	numbar	706.0
A2RCMJLGDWYFO	add2	False	92	1+12	13	692	True	13	1962	1	12	01	12	1017.0	numbar	945.0
A2RCMJLGDWYFO	add2	False	111	3+1	4	754	True	4	1565	3	1	03	01	1021.3333333333334	numbar	543.6666666666666
A2RCMJLGDWYFO	add2	False	138	1+3	4	666	True	4	1685	1	3	01	03	1021.3333333333334	numbar	663.6666666666666
A2RCMJLGDWYFO	add2	False	12	2+2	4	814	True	4	1189	2	2	02	02	1021.3333333333334	numbar	167.66666666666663
A2RCMJLGDWYFO	add2	False	37	4+0	4	787	True	4	1279	4	0	04	00	1021.3333333333334	numbar	257.66666666666663
A2RCMJLGDWYFO	add2	False	3	0+4	4	767	True	4	1244	0	4	00	04	1021.3333333333334	numbar	222.66666666666663
A2RCMJLGDWYFO	add2	False	112	17+3	20	446	True	20	1585	17	3	17	03	1415.0	numbar	170.0
A2RCMJLGDWYFO	add2	False	130	12+8	20	727	True	20	1592	12	8	12	08	1415.0	numbar	177.0
A2RCMJLGDWYFO	add2	False	20	9+11	20	952	True	20	2370	9	11	09	11	1415.0	numbar	955.0
A2RCMJLGDWYFO	add2	False	87	3+17	20	790	True	20	1674	3	17	03	17	1415.0	numbar	259.0
A2RCMJLGDWYFO	add2	False	105	1+19	20	920	True	20	2040	1	19	01	19	1415.0	numbar	625.0
A2RCMJLGDWYFO	add2	False	111	14+6	20	940	True	20	2454	14	6	14	06	1415.0	numbar	1039.0
A2RCMJLGDWYFO	add2	False	125	5+15	20	735	True	20	2371	5	15	05	15	1415.0	numbar	956.0
A2RCMJLGDWYFO	add2	False	133	18+2	20	678	True	20	1688	18	2	18	02	1415.0	numbar	273.0
A2RCMJLGDWYFO	add2	False	143	6+14	20	786	True	20	2428	6	14	06	14	1415.0	numbar	1013.0
A2RCMJLGDWYFO	add2	False	146	16+4	20	817	True	20	1500	16	4	16	04	1415.0	numbar	85.0
A2RCMJLGDWYFO	add2	False	2	19+1	20	562	True	20	1422	19	1	19	01	1415.0	numbar	7.0
A2RCMJLGDWYFO	add2	False	46	7+13	20	810	True	20	1811	7	13	07	13	1415.0	numbar	396.0
A2RCMJLGDWYFO	add2	False	52	4+16	20	475	True	20	1749	4	16	04	16	1415.0	numbar	334.0
A2RCMJLGDWYFO	add2	False	104	8+12	20	550	True	20	2361	8	12	08	12	1415.0	numbar	946.0
A2RCMJLGDWYFO	add2	False	113	15+5	20	950	True	20	2825	15	5	15	05	1415.0	numbar	1410.0
A2RCMJLGDWYFO	add2	False	132	2+18	20	726	True	20	2299	2	18	02	18	1415.0	numbar	884.0
A2RCMJLGDWYFO	add2	False	32	0+20	20	632	True	20	1397	0	20	00	20	1415.0	numbar	-18.0
A2RCMJLGDWYFO	add2	False	6	20+0	20	503	True	20	1656	20	0	20	00	1415.0	numbar	241.0
A2RCMJLGDWYFO	add2	False	73	11+9	20	961	True	20	2110	11	9	11	09	1415.0	numbar	695.0
A2RCMJLGDWYFO	add2	False	115	2+8	10	531	True	10	1177	2	8	02	08	1101.0	numbar	76.0
A2RCMJLGDWYFO	add2	False	123	1+9	10	647	True	10	1255	1	9	01	09	1101.0	numbar	154.0
A2RCMJLGDWYFO	add2	False	45	6+4	10	739	True	10	1566	6	4	06	04	1101.0	numbar	465.0
A2RCMJLGDWYFO	add2	False	68	5+5	10	564	True	10	1353	5	5	05	05	1101.0	numbar	252.0
A2RCMJLGDWYFO	add2	False	70	10+0	10	496	True	10	1390	10	0	10	00	1101.0	numbar	289.0
A2RCMJLGDWYFO	add2	False	92	0+10	10	420	True	10	1242	0	10	00	10	1101.0	numbar	141.0
A2RCMJLGDWYFO	add2	False	43	3+7	10	686	True	10	1326	3	7	03	07	1101.0	numbar	225.0
A2RCMJLGDWYFO	add2	False	48	8+2	10	761	True	10	1304	8	2	08	02	1101.0	numbar	203.0
A2RCMJLGDWYFO	add2	False	51	7+3	10	703	True	10	1310	7	3	07	03	1101.0	numbar	209.0
A2RCMJLGDWYFO	add2	False	106	9+1	10	782	True	10	2205	9	1	09	01	1101.0	numbar	1104.0
A2RCMJLGDWYFO	add2	False	45	4+6	10	726	True	10	1417	4	6	04	06	1101.0	numbar	316.0
A2RCMJLGDWYFO	add2	False	122	9+0	9	822	True	9	1306	9	0	09	00	1151.3333333333333	numbar	154.66666666666674
A2RCMJLGDWYFO	add2	False	3	5+4	9	834	True	9	1247	5	4	05	04	1151.3333333333333	numbar	95.66666666666674
A2RCMJLGDWYFO	add2	False	30	2+7	9	453	True	9	1383	2	7	02	07	1151.3333333333333	numbar	231.66666666666674
A2RCMJLGDWYFO	add2	False	65	1+8	9	569	True	9	1637	1	8	01	08	1151.3333333333333	numbar	485.66666666666674
A2RCMJLGDWYFO	add2	False	94	8+1	9	852	True	9	2023	8	1	08	01	1151.3333333333333	numbar	871.6666666666667
A2RCMJLGDWYFO	add2	False	23	7+2	9	921	True	9	1381	7	2	07	02	1151.3333333333333	numbar	229.66666666666674
A2RCMJLGDWYFO	add2	False	24	0+9	9	558	True	9	1105	0	9	00	09	1151.3333333333333	numbar	-46.33333333333326
A2RCMJLGDWYFO	add2	False	73	6+3	9	932	True	9	1261	6	3	06	03	1151.3333333333333	numbar	109.66666666666674
A2RCMJLGDWYFO	add2	False	126	3+6	9	773	True	9	1738	3	6	03	06	1151.3333333333333	numbar	586.6666666666667
A2RCMJLGDWYFO	add2	False	128	0+0	0	874	True	0	1156	0	0	00	00	1152.0	numbar	4.0
A2RCMJLGDWYFO	add2	False	134	12+0	12	995	True	12	1358	12	0	12	00	910.0	numbar	448.0
A2RCMJLGDWYFO	add2	False	29	6+6	12	947	True	12	1371	6	6	06	06	910.0	numbar	461.0
A2RCMJLGDWYFO	add2	False	41	1+11	12	946	True	12	2345	1	11	01	11	910.0	numbar	1435.0
A2RCMJLGDWYFO	add2	False	75	3+9	12	433	True	12	1853	3	9	03	09	910.0	numbar	943.0
A2RCMJLGDWYFO	add2	False	98	9+3	12	523	True	12	1478	9	3	09	03	910.0	numbar	568.0
A2RCMJLGDWYFO	add2	False	124	2+10	12	866	True	12	1857	2	10	02	10	910.0	numbar	947.0
A2RCMJLGDWYFO	add2	False	62	5+7	12	727	True	12	1780	5	7	05	07	910.0	numbar	870.0
A2RCMJLGDWYFO	add2	False	65	11+1	12	997	True	12	1993	11	1	11	01	910.0	numbar	1083.0
A2RCMJLGDWYFO	add2	False	77	0+12	12	960	True	12	1310	0	12	00	12	910.0	numbar	400.0
A2RCMJLGDWYFO	add2	False	18	4+8	12	427	True	12	2148	4	8	04	08	910.0	numbar	1238.0
A2RCMJLGDWYFO	add2	False	23	7+5	12	886	True	12	1911	7	5	07	05	910.0	numbar	1001.0
A2RCMJLGDWYFO	add2	False	54	10+2	12	887	True	12	1336	10	2	10	02	910.0	numbar	426.0
A2RCMJLGDWYFO	add2	False	14	14+3	17	805	True	17	1559	14	3	14	03	889.6666666666666	numbar	669.3333333333334
A2RCMJLGDWYFO	add2	False	39	7+10	17	797	True	17	2608	7	10	07	10	889.6666666666666	numbar	1718.3333333333335
A2RCMJLGDWYFO	add2	False	42	1+16	17	753	True	17	2095	1	16	01	16	889.6666666666666	numbar	1205.3333333333335
A2RCMJLGDWYFO	add2	False	57	12+5	17	435	True	17	2618	12	5	12	05	889.6666666666666	numbar	1728.3333333333335
A2RCMJLGDWYFO	add2	False	82	17+0	17	612	True	17	1287	17	0	17	00	889.6666666666666	numbar	397.33333333333337
A2RCMJLGDWYFO	add2	False	9	9+8	17	679	True	17	1862	9	8	09	08	889.6666666666666	numbar	972.3333333333334
A2RCMJLGDWYFO	add2	False	97	8+9	17	438	True	17	2474	8	9	08	09	889.6666666666666	numbar	1584.3333333333335
A2RCMJLGDWYFO	add2	False	112	2+15	17	604	True	17	2304	2	15	02	15	889.6666666666666	numbar	1414.3333333333335
A2RCMJLGDWYFO	add2	False	128	4+13	17	403	True	17	2602	4	13	04	13	889.6666666666666	numbar	1712.3333333333335
A2RCMJLGDWYFO	add2	False	132	13+4	17	986	True	17	1605	13	4	13	04	889.6666666666666	numbar	715.3333333333334
A2RCMJLGDWYFO	add2	False	137	6+11	17	631	True	17	2295	6	11	06	11	889.6666666666666	numbar	1405.3333333333335
A2RCMJLGDWYFO	add2	False	58	5+12	17	669	True	17	2398	5	12	05	12	889.6666666666666	numbar	1508.3333333333335
A2RCMJLGDWYFO	add2	False	26	16+1	17	793	True	17	2322	16	1	16	01	889.6666666666666	numbar	1432.3333333333335
A2RCMJLGDWYFO	add2	False	64	10+7	17	769	True	17	1549	10	7	10	07	889.6666666666666	numbar	659.3333333333334
A2RCMJLGDWYFO	add2	False	66	15+2	17	904	True	17	2008	15	2	15	02	889.6666666666666	numbar	1118.3333333333335
A2RCMJLGDWYFO	add2	False	17	0+1	1	470	True	1	1290	0	1	00	01	597.0	numbar	693.0
A2RCMJLGDWYFO	add2	False	72	1+0	1	517	True	1	1017	1	0	01	00	597.0	numbar	420.0
A2RCMJLGDWYFO	add2	False	19	7+0	7	684	True	7	1222	7	0	07	00	926.6666666666666	numbar	295.33333333333337
A2RCMJLGDWYFO	add2	False	78	5+2	7	914	True	7	1329	5	2	05	02	926.6666666666666	numbar	402.33333333333337
A2RCMJLGDWYFO	add2	False	17	1+6	7	792	True	7	1602	1	6	01	06	926.6666666666666	numbar	675.3333333333334
A2RCMJLGDWYFO	add2	False	3	4+3	7	572	True	7	1199	4	3	04	03	926.6666666666666	numbar	272.33333333333337
A2RCMJLGDWYFO	add2	False	112	3+4	7	585	True	7	1234	3	4	03	04	926.6666666666666	numbar	307.33333333333337
A2RCMJLGDWYFO	add2	False	117	0+7	7	824	True	7	1189	0	7	00	07	926.6666666666666	numbar	262.33333333333337
A2RCMJLGDWYFO	add2	False	125	6+1	7	939	True	7	1346	6	1	06	01	926.6666666666666	numbar	419.33333333333337
A2RCMJLGDWYFO	add2	False	137	2+5	7	661	True	7	1356	2	5	02	05	926.6666666666666	numbar	429.33333333333337
A2RCMJLGDWYFO	add2	False	36	15+3	18	710	True	18	1898	15	3	15	03	863.5	numbar	1034.5
A2RCMJLGDWYFO	add2	False	60	14+4	18	534	True	18	2279	14	4	14	04	863.5	numbar	1415.5
A2RCMJLGDWYFO	add2	False	86	11+7	18	458	True	18	3442	11	7	11	07	863.5	numbar	2578.5
A2RCMJLGDWYFO	add2	False	91	5+13	18	804	True	18	2606	5	13	05	13	863.5	numbar	1742.5
A2RCMJLGDWYFO	add2	False	102	16+2	18	808	True	18	1892	16	2	16	02	863.5	numbar	1028.5
A2RCMJLGDWYFO	add2	False	118	13+5	18	580	True	18	1975	13	5	13	05	863.5	numbar	1111.5
A2RCMJLGDWYFO	add2	False	123	8+10	18	935	True	18	1960	8	10	08	10	863.5	numbar	1096.5
A2RCMJLGDWYFO	add2	False	142	3+15	18	680	True	18	2120	3	15	03	15	863.5	numbar	1256.5
A2RCMJLGDWYFO	add2	False	10	0+18	18	661	True	18	1580	0	18	00	18	863.5	numbar	716.5
A2RCMJLGDWYFO	add2	False	114	6+12	18	876	True	18	2267	6	12	06	12	863.5	numbar	1403.5
A2RCMJLGDWYFO	add2	False	121	2+16	18	712	True	18	2249	2	16	02	16	863.5	numbar	1385.5
A2RCMJLGDWYFO	add2	False	124	1+17	18	747	True	18	1972	1	17	01	17	863.5	numbar	1108.5
A2RCMJLGDWYFO	add2	False	140	18+0	18	945	True	18	1583	18	0	18	00	863.5	numbar	719.5
A2RCMJLGDWYFO	add2	False	19	4+14	18	501	True	18	2056	4	14	04	14	863.5	numbar	1192.5
A2RCMJLGDWYFO	add2	False	22	7+11	18	893	True	18	3055	7	11	07	11	863.5	numbar	2191.5
A2RCMJLGDWYFO	add2	False	37	10+8	18	677	True	18	2105	10	8	10	08	863.5	numbar	1241.5
A2RCMJLGDWYFO	add2	False	4	17+1	18	409	True	18	2089	17	1	17	01	863.5	numbar	1225.5
A2RCMJLGDWYFO	add2	False	4	2+3	5	561	True	5	1346	2	3	02	03	1212.0	numbar	134.0
A2RCMJLGDWYFO	add2	False	63	0+5	5	777	True	5	1252	0	5	00	05	1212.0	numbar	40.0
A2RCMJLGDWYFO	add2	False	7	5+0	5	434	True	5	1197	5	0	05	00	1212.0	numbar	-15.0
A2RCMJLGDWYFO	add2	False	72	3+2	5	918	True	5	1335	3	2	03	02	1212.0	numbar	123.0
A2RCMJLGDWYFO	add2	False	141	4+1	5	948	True	5	1300	4	1	04	01	1212.0	numbar	88.0
A2RCMJLGDWYFO	add2	False	64	4+7	11	428	True	11	1744	4	7	04	07	901.3333333333334	numbar	842.6666666666666
A2RCMJLGDWYFO	add2	False	26	9+2	11	663	True	11	1639	9	2	09	02	901.3333333333334	numbar	737.6666666666666
A2RCMJLGDWYFO	add2	False	39	0+11	11	683	True	11	1268	0	11	00	11	901.3333333333334	numbar	366.66666666666663
A2RCMJLGDWYFO	add2	False	71	1+10	11	470	True	11	2141	1	10	01	10	901.3333333333334	numbar	1239.6666666666665
A2RCMJLGDWYFO	add2	False	79	11+0	11	652	True	11	1060	11	0	11	00	901.3333333333334	numbar	158.66666666666663
A2RCMJLGDWYFO	add2	False	94	3+8	11	572	True	11	2276	3	8	03	08	901.3333333333334	numbar	1374.6666666666665
A2RCMJLGDWYFO	add2	False	105	5+6	11	602	True	11	1959	5	6	05	06	901.3333333333334	numbar	1057.6666666666665
A2RCMJLGDWYFO	add2	False	122	10+1	11	817	True	11	1378	10	1	10	01	901.3333333333334	numbar	476.66666666666663
A2RCMJLGDWYFO	add2	False	136	6+5	11	596	True	11	2041	6	5	06	05	901.3333333333334	numbar	1139.6666666666665
A2RCMJLGDWYFO	add2	False	60	2+9	11	825	True	11	2104	2	9	02	09	901.3333333333334	numbar	1202.6666666666665
A2RCMJLGDWYFO	add2	False	71	8+3	11	620	True	11	2737	8	3	08	03	901.3333333333334	numbar	1835.6666666666665
A2RCMJLGDWYFO	add2	False	131	5+1	6	659	True	6	1371	5	1	05	01	935.3333333333334	numbar	435.66666666666663
A2RCMJLGDWYFO	add2	False	16	3+3	6	414	True	6	1264	3	3	03	03	935.3333333333334	numbar	328.66666666666663
A2RCMJLGDWYFO	add2	False	50	2+4	6	483	True	6	1484	2	4	02	04	935.3333333333334	numbar	548.6666666666666
A2RCMJLGDWYFO	add2	False	27	1+5	6	617	True	6	1303	1	5	01	05	935.3333333333334	numbar	367.66666666666663
A2RCMJLGDWYFO	add2	False	39	4+2	6	628	True	6	1644	4	2	04	02	935.3333333333334	numbar	708.6666666666666
A2RCMJLGDWYFO	add2	False	9	0+6	6	606	True	6	1313	0	6	00	06	935.3333333333334	numbar	377.66666666666663
A2RCMJLGDWYFO	add2	False	99	6+0	6	966	True	6	1160	6	0	06	00	935.3333333333334	numbar	224.66666666666663
A2RCMJLGDWYFO	add2	False	29	2+1	3	836	True	3	1258	2	1	02	01	1000.6666666666666	numbar	257.33333333333337
A2RCMJLGDWYFO	add2	False	21	0+3	3	871	True	3	1224	0	3	00	03	1000.6666666666666	numbar	223.33333333333337
A2RCMJLGDWYFO	add2	False	72	3+0	3	648	True	3	1172	3	0	03	00	1000.6666666666666	numbar	171.33333333333337
A1KFTQRBMXSC13	add2	False	10	3+16	19	793	True	19	2092	3	16	03	16	749.0	numpad	1343.0
A1KFTQRBMXSC13	add2	False	133	8+11	19	970	True	19	2044	8	11	08	11	749.0	numpad	1295.0
A1KFTQRBMXSC13	add2	False	38	5+14	19	967	True	19	5221	5	14	05	14	749.0	numpad	4472.0
A1KFTQRBMXSC13	add2	False	51	6+13	19	632	True	19	1764	6	13	06	13	749.0	numpad	1015.0
A1KFTQRBMXSC13	add2	False	69	2+17	19	899	True	19	1706	2	17	02	17	749.0	numpad	957.0
A1KFTQRBMXSC13	add2	False	116	9+10	19	611	True	19	1349	9	10	09	10	749.0	numpad	600.0
A1KFTQRBMXSC13	add2	False	143	0+19	19	569	True	19	1420	0	19	00	19	749.0	numpad	671.0
A1KFTQRBMXSC13	add2	False	54	15+4	19	981	True	19	1145	15	4	15	04	749.0	numpad	396.0
A1KFTQRBMXSC13	add2	False	85	16+3	19	828	True	19	1107	16	3	16	03	749.0	numpad	358.0
A1KFTQRBMXSC13	add2	False	22	4+15	19	802	True	19	1472	4	15	04	15	749.0	numpad	723.0
A1KFTQRBMXSC13	add2	False	27	17+2	19	647	True	19	1453	17	2	17	02	749.0	numpad	704.0
A1KFTQRBMXSC13	add2	False	61	7+12	19	646	True	19	1971	7	12	07	12	749.0	numpad	1222.0
A1KFTQRBMXSC13	add2	False	63	18+1	19	833	True	19	1722	18	1	18	01	749.0	numpad	973.0
A1KFTQRBMXSC13	add2	False	82	14+5	19	550	True	19	1834	14	5	14	05	749.0	numpad	1085.0
A1KFTQRBMXSC13	add2	False	85	10+9	19	688	True	19	1071	10	9	10	09	749.0	numpad	322.0
A1KFTQRBMXSC13	add2	False	95	1+18	19	803	True	19	1503	1	18	01	18	749.0	numpad	754.0
A1KFTQRBMXSC13	add2	False	96	13+6	19	494	True	19	1158	13	6	13	06	749.0	numpad	409.0
A1KFTQRBMXSC13	add2	False	100	4+0	4	992	True	4	1213	4	0	04	00	760.6666666666666	numpad	452.33333333333337
A1KFTQRBMXSC13	add2	False	109	1+3	4	690	True	4	971	1	3	01	03	760.6666666666666	numpad	210.33333333333337
A1KFTQRBMXSC13	add2	False	103	0+4	4	505	True	4	960	0	4	00	04	760.6666666666666	numpad	199.33333333333337
A1KFTQRBMXSC13	add2	False	53	2+2	4	752	True	4	960	2	2	02	02	760.6666666666666	numpad	199.33333333333337
A1KFTQRBMXSC13	add2	False	34	3+1	4	943	True	4	1143	3	1	03	01	760.6666666666666	numpad	382.33333333333337
A1KFTQRBMXSC13	add2	False	101	10+10	20	940	True	20	1409	10	10	10	10	833.6666666666666	numpad	575.3333333333334
A1KFTQRBMXSC13	add2	False	3	3+17	20	988	True	20	1540	3	17	03	17	833.6666666666666	numpad	706.3333333333334
A1KFTQRBMXSC13	add2	False	4	1+19	20	831	True	20	1105	1	19	01	19	833.6666666666666	numpad	271.33333333333337
A1KFTQRBMXSC13	add2	False	6	11+9	20	619	True	20	1801	11	9	11	09	833.6666666666666	numpad	967.3333333333334
A1KFTQRBMXSC13	add2	False	93	12+8	20	727	True	20	2432	12	8	12	08	833.6666666666666	numpad	1598.3333333333335
A1KFTQRBMXSC13	add2	False	96	15+5	20	829	True	20	1170	15	5	15	05	833.6666666666666	numpad	336.33333333333337
A1KFTQRBMXSC13	add2	False	110	20+0	20	963	True	20	911	20	0	20	00	833.6666666666666	numpad	77.33333333333337
A1KFTQRBMXSC13	add2	False	17	17+3	20	677	True	20	1090	17	3	17	03	833.6666666666666	numpad	256.33333333333337
A1KFTQRBMXSC13	add2	False	22	4+16	20	484	True	20	1152	4	16	04	16	833.6666666666666	numpad	318.33333333333337
A1KFTQRBMXSC13	add2	False	9	6+14	20	693	True	20	1872	6	14	06	14	833.6666666666666	numpad	1038.3333333333335
A1KFTQRBMXSC13	add2	False	93	0+20	20	917	True	20	914	0	20	00	20	833.6666666666666	numpad	80.33333333333337
A1KFTQRBMXSC13	add2	False	129	5+15	20	754	True	20	1393	5	15	05	15	833.6666666666666	numpad	559.3333333333334
A1KFTQRBMXSC13	add2	False	132	19+1	20	411	True	20	1030	19	1	19	01	833.6666666666666	numpad	196.33333333333337
A1KFTQRBMXSC13	add2	False	143	16+4	20	589	True	20	1220	16	4	16	04	833.6666666666666	numpad	386.33333333333337
A1KFTQRBMXSC13	add2	False	20	13+7	20	839	True	20	1253	13	7	13	07	833.6666666666666	numpad	419.33333333333337
A1KFTQRBMXSC13	add2	False	23	8+12	20	619	True	20	2134	8	12	08	12	833.6666666666666	numpad	1300.3333333333335
A1KFTQRBMXSC13	add2	False	51	14+6	20	513	True	20	2827	14	6	14	06	833.6666666666666	numpad	1993.3333333333335
A1KFTQRBMXSC13	add2	False	57	9+11	20	826	True	20	2213	9	11	09	11	833.6666666666666	numpad	1379.3333333333335
A1KFTQRBMXSC13	add2	False	67	18+2	20	524	True	20	1300	18	2	18	02	833.6666666666666	numpad	466.33333333333337
A1KFTQRBMXSC13	add2	False	77	2+18	20	471	True	20	1814	2	18	02	18	833.6666666666666	numpad	980.3333333333334
A1KFTQRBMXSC13	add2	False	102	9+7	16	551	True	16	1666	9	7	09	07	717.0	numpad	949.0
A1KFTQRBMXSC13	add2	False	24	14+2	16	989	True	16	1215	14	2	14	02	717.0	numpad	498.0
A1KFTQRBMXSC13	add2	False	39	13+3	16	716	True	16	1570	13	3	13	03	717.0	numpad	853.0
A1KFTQRBMXSC13	add2	False	55	11+5	16	747	True	16	1860	11	5	11	05	717.0	numpad	1143.0
A1KFTQRBMXSC13	add2	False	105	10+6	16	540	True	16	1028	10	6	10	06	717.0	numpad	311.0
A1KFTQRBMXSC13	add2	False	134	0+16	16	836	True	16	1174	0	16	00	16	717.0	numpad	457.0
A1KFTQRBMXSC13	add2	False	140	2+14	16	804	True	16	1411	2	14	02	14	717.0	numpad	694.0
A1KFTQRBMXSC13	add2	False	5	1+15	16	770	True	16	1341	1	15	01	15	717.0	numpad	624.0
A1KFTQRBMXSC13	add2	False	95	4+12	16	876	True	16	2102	4	12	04	12	717.0	numpad	1385.0
A1KFTQRBMXSC13	add2	False	118	6+10	16	628	True	16	1521	6	10	06	10	717.0	numpad	804.0
A1KFTQRBMXSC13	add2	False	130	5+11	16	430	True	16	1801	5	11	05	11	717.0	numpad	1084.0
A1KFTQRBMXSC13	add2	False	142	16+0	16	824	True	16	1081	16	0	16	00	717.0	numpad	364.0
A1KFTQRBMXSC13	add2	False	144	7+9	16	651	True	16	1434	7	9	07	09	717.0	numpad	717.0
